imu,server_time,arduino_time,ax,ay,az,gx,gy,gz,mx,my,mz
2,2021-07-06 12:11:10.634982,185531,9.657580808030765,-1.9258992432762676,-0.034848210865093515,13.258104069919076,10.958191765990568,-13.368443900169646,0.0,0.0,0.0
2,2021-07-06 12:11:10.643302,185540,9.663989442759934,-1.912737974219023,-0.01784356271459351,13.271403220992594,10.974479172195947,-13.600581605935808,0.0,0.0,0.0
2,2021-07-06 12:11:10.651527,185548,9.670653365744915,-1.8991132305389529,-0.000506998747644354,13.285187410794705,10.986075301855625,-13.833220298556697,0.0,0.0,0.0
2,2021-07-06 12:11:10.659148,185555,9.6775723323726,-1.8850279689293468,0.01714730396824562,13.29946666972778,10.992711901596051,-14.065886906205554,0.0,0.0,0.0
2,2021-07-06 12:11:10.667263,185564,9.684745514285884,-1.8704860718627043,0.03510441349764384,13.314251419469617,10.994126534718841,-14.298098161993607,0.0,0.0,0.0
2,2021-07-06 12:11:10.676023,185572,9.692171472388107,-1.8554923686902598,0.05334865337149961,13.329552486928518,10.990063770779887,-14.529361984045325,0.0,0.0,0.0
2,2021-07-06 12:11:10.684217,185581,9.699848131992832,-1.8400526569818134,0.07186361497337468,13.345381113251861,10.980276365474943,-14.759178902879608,0.0,0.0,0.0
2,2021-07-06 12:11:10.692747,185589,9.707772760864426,-1.8241737234714355,0.0906321734960146,13.36174895716511,10.964526422613158,-14.987043533138829,0.0,0.0,0.0
2,2021-07-06 12:11:10.699819,185596,9.715941950979392,-1.8078633636481913,0.10963650946220815,13.378668091792008,10.942586529622753,-15.212446086925231,0.0,0.0,0.0
2,2021-07-06 12:11:10.707580,185604,9.724351604757281,-1.7911303989714216,0.12885813763739387,13.39615099462901,10.914240860050231,-15.434873930804267,0.0,0.0,0.0
2,2021-07-06 12:11:10.715247,185612,9.732996926254211,-1.7739846908100951,0.14827794456811816,13.4142105310912,10.879286239006813,-15.653813194085311,0.0,0.0,0.0
2,2021-07-06 12:11:10.723318,185620,9.74187241720664,-1.756437150730472,0.1678762347816182,13.432859932159861,10.837533165633944,-15.868750431967822,0.0,0.0,0.0
2,2021-07-06 12:11:10.730730,185627,9.750971876876662,-1.7384997476904465,0.18763278378588347,13.452112766088526,10.788806780427993,-16.079174332770943,0.0,0.0,0.0
2,2021-07-06 12:11:10.737895,185634,9.760288404228012,-1.7201855132248174,0.2075268945794728,13.47198290352788,10.732947761500427,-16.284577446480082,0.0,0.0,0.0
2,2021-07-06 12:11:10.745240,185642,9.769814401669995,-1.7015085451940497,0.22753745455159607,13.492484475324165,10.669813137120098,-16.484457912529418,0.0,0.0,0.0
2,2021-07-06 12:11:10.752361,185649,9.779541580645134,-1.682484009744692,0.24764299093098277,13.513631822614656,10.599277007971743,-16.678321174011117,0.0,0.0,0.0
2,2021-07-06 12:11:10.759722,185656,9.789460969694247,-1.6631281406929668,0.267821724163858,13.535439439355823,10.521231176193778,-16.86568167297318,0.0,0.0,0.0
2,2021-07-06 12:11:10.766992,185663,9.799562925420467,-1.6434582356218168,0.28805161921746575,13.557921907743086,10.43558567957222,-17.04606452249431,0.0,0.0,0.0
2,2021-07-06 12:11:10.774708,185671,9.809837146579238,-1.6234926481808114,0.3083104350495087,13.581093827115636,10.34226922945185,-17.219007149945174,0.0,0.0,0.0
2,2021-07-06 12:11:10.782321,185679,9.82027269149179,-1.6032507764438373,0.32857577285466577,13.604969737075352,10.241229549965992,-17.38406090625872,0.0,0.0,0.0
2,2021-07-06 12:11:10.791100,185687,9.830857998949496,-1.582753047863061,0.34882512419698336,13.629564035661529,10.132433614865514,-17.54079263567357,0.0,0.0,0.0
2,2021-07-06 12:11:10.798300,185695,9.841580912676783,-1.5620209018264295,0.36903592037222377,13.654890893418186,10.01586777740019,-17.688786199316784,0.0,0.0,0.0
2,2021-07-06 12:11:10.805557,185702,9.852428709126908,-1.5410767707354862,0.38918558413861043,13.680964163949836,9.891537788443554,-17.82764394685726,0.0,0.0,0.0
2,2021-07-06 12:11:10.812566,185709,9.863388127824317,-1.5199440602748535,0.40925158440398884,13.707797291029173,9.759468698357088,-17.956988130422765,0.0,0.0,0.0
2,2021-07-06 12:11:10.820713,185717,9.87444540320001,-1.498647128749357,0.42921149372246326,13.735403212009903,9.619704638677877,-18.07646225238197,0.0,0.0,0.0
2,2021-07-06 12:11:10.829884,185726,9.885586297416296,-1.4772112634406513,0.44904304778132365,13.763794257730915,9.472308479875835,-18.185732337525064,0.0,0.0,0.0
2,2021-07-06 12:11:10.838536,185735,9.89679613444695,-1.455662650389249,0.46872420545412297,13.792982049816311,9.317361361211086,-18.284488122766327,0.0,0.0,0.0
2,2021-07-06 12:11:10.847446,185744,9.908059835730798,-1.4340283345949791,0.48823320622646266,13.822977396441816,9.154962090025796,-18.372444161229016,0.0,0.0,0.0
2,2021-07-06 12:11:10.855287,185752,9.919361957124469,-1.4123361694212215,0.5075486186476237,13.853790187244192,8.985226413417294,-18.449340839212013,0.0,0.0,0.0
2,2021-07-06 12:11:10.864153,185760,9.930686726585579,-1.3906147548312215,0.5266493732687784,13.885429287980859,8.808286176820538,-18.514945304245945,0.0,0.0,0.0
2,2021-07-06 12:11:10.873048,185769,9.942018082558631,-1.368893363721221,0.5455147792320417,13.917902436212772,8.624288399122387,-18.569052302785177,0.0,0.0,0.0
2,2021-07-06 12:11:10.880812,185777,9.953339713934271,-1.3472018560250694,0.5641245296286562,13.951216139657813,8.433394304402926,-18.611484927241882,0.0,0.0,0.0
2,2021-07-06 12:11:10.887979,185784,9.964635103037567,-1.3255705824223578,0.5824587009832093,13.985375578146671,8.235778349426344,-18.642095272629394,0.0,0.0,0.0
2,2021-07-06 12:11:10.897024,185793,9.975887573119737,-1.3040302811084157,0.6004977493767013,14.020384509406213,8.031627274660957,-18.660765003188235,0.0,0.0,0.0
2,2021-07-06 12:11:10.903999,185800,9.98708034120681,-1.2826119701446117,0.6182225047669204,14.056245179460555,7.821139191372858,-18.667405829637126,0.0,0.0,0.0
2,2021-07-06 12:11:10.912561,185809,9.998196576095522,-1.2613468360276068,0.6356141661602126,14.0929582395585,7.60452270593634,-18.66195989772209,0.0,0.0,0.0
2,2021-07-06 12:11:10.920250,185817,10.009219460296137,-1.2402661188461952,0.6526543008428883,14.130522671430272,7.381996077915469,-18.644400088041564,0.0,0.0,0.0
2,2021-07-06 12:11:10.927964,185824,10.020132254198943,-1.219400995669826,0.6693248497943288,14.16893572107021,7.153786406769698,-18.614730226013894,0.0,0.0,0.0
2,2021-07-06 12:11:10.935662,185832,10.030918360828332,-1.1987824645068437,0.6856081394786251,14.208192839951648,6.920128840166171,-18.572985200062586,0.0,0.0,0.0
2,2021-07-06 12:11:10.943440,185840,10.041561390002174,-1.1784412299644569,0.7014868972596108,14.248287632711694,6.681265796635894,-18.519230985981125,0.0,0.0,0.0
2,2021-07-06 12:11:10.951305,185848,10.052045220905011,-1.1584075899181447,0.7169442638244922,14.289211810885494,6.437446199036825,-18.453564575618188,0.0,0.0,0.0
2,2021-07-06 12:11:10.959025,185855,10.06235406180007,-1.1387113224215144,0.7319637959087436,14.330955152756035,6.1889247227713815,-18.376113807952564,0.0,0.0,0.0
2,2021-07-06 12:11:10.967094,185863,10.072472505329738,-1.1193815740157904,0.746529459270232,14.37350547048766,5.935961070347413,-18.287037100196134,0.0,0.0,0.0
2,2021-07-06 12:11:10.974869,185871,10.082385578166072,-1.1004467520274037,0.7606256186246753,14.416848586884097,5.678819285699109,-18.18652307586981,0.0,0.0,0.0
2,2021-07-06 12:11:10.982189,185879,10.09207878495686,-1.0819344224752112,0.7742370310215303,14.460968324083307,5.417767117603144,-18.074790086032795,0.0,0.0,0.0
2,2021-07-06 12:11:10.989324,185886,10.101538148100213,-1.0638712130860664,0.787348844601492,14.505846505460994,5.153075438787262,-17.952085619248596,0.0,0.0,0.0
2,2021-07-06 12:11:10.995768,185892,10.110750245589522,-1.046282719977033,0.7999466017404352,14.551462971313057,4.885017726399613,-17.818685595546622,0.0,0.0,0.0
2,2021-07-06 12:11:11.002795,185899,10.11970224813226,-1.0291934178289097,0.812016245083163,14.597795609021894,4.613869605056138,-17.67489354013281,0.0,0.0,0.0
2,2021-07-06 12:11:11.010254,185907,10.128381954746633,-1.0126265760081479,0.8235441248983372,14.644820398671406,4.33990844805611,-17.521039634131373,0.0,0.0,0.0
2,2021-07-06 12:11:11.017544,185914,10.136777824669185,-0.9966041847313469,0.8345170063008072,14.692511475128915,4.063413029589254,-17.3574796413277,0.0,0.0,0.0
2,2021-07-06 12:11:11.024978,185921,10.144879002678266,-0.9811468949745823,0.8449220763842764,14.740841207600953,3.7846632198091346,-17.184593713295126,0.0,0.0,0.0
2,2021-07-06 12:11:11.032743,185929,10.152675334126469,-0.966273974667548,0.8547469533250892,14.789780297025263,3.50393971577746,-17.002785083452846,0.0,0.0,0.0
2,2021-07-06 12:11:11.041612,185938,10.16015736694568,-0.9520032814490194,0.8639796983848536,14.83929788953011,3.221523805748687,-16.812478671063534,0.0,0.0,0.0
2,2021-07-06 12:11:11.050536,185947,10.167316342157651,-0.9383512479306511,0.8726088264392099,14.889361701237615,2.9376971694097365,-16.61411962220886,0.0,0.0,0.0
2,2021-07-06 12:11:11.058448,185955,10.174144178374586,-0.9253328721766022,0.8806233070667141,14.939938148643165,2.6527417179898256,-16.40817181176758,0.0,0.0,0.0
2,2021-07-06 12:11:11.066905,185963,10.180633455846754,-0.9129617072231136,0.8880125522931901,14.990992481089712,2.366939476550286,-16.195116320735085,0.0,0.0,0.0
2,2021-07-06 12:11:11.075014,185971,10.186777403724033,-0.9012498468492421,0.8947663957078957,15.042488914970047,2.080572512020108,-15.975449895547534,0.0,0.0,0.0
2,2021-07-06 12:11:11.082691,185979,10.19256989293711,-0.8902079073296837,0.9008750722086002,15.094390770585484,1.7939229137119344,-15.74968339375041,0.0,0.0,0.0
2,2021-07-06 12:11:11.090736,185987,10.198005436200992,-0.8798450063370217,0.9063292050117976,15.146660612555609,1.507272831579212,-15.518340218183955,0.0,0.0,0.0
2,2021-07-06 12:11:11.098219,185995,10.203079195597418,-0.8701687408123056,0.9111198015527404,15.199260394637777,1.2209045709000614,-15.281954737556886,0.0,0.0,0.0
2,2021-07-06 12:11:11.105498,186002,10.20778699695341,-0.8611851655033127,0.9152382566093953,15.252151609603079,0.9351007349469019,-15.041070688416061,0.0,0.0,0.0
2,2021-07-06 12:11:11.112890,186009,10.212125348538523,-0.8528987737875982,0.9186763592591543,15.305295443787493,0.6501444029117353,-14.796239555246089,0.0,0.0,0.0
2,2021-07-06 12:11:11.121602,186018,10.216091459903824,-0.8453124827842488,0.921426300831465,15.35865293481202,0.3663193301373878,-14.548018931599476,0.0,0.0,0.0
2,2021-07-06 12:11:11.128725,186025,10.219683255914012,-0.838427625025989,0.9234806847967006,15.412185130991336,0.08391015991996008,-14.29697087195853,0.0,0.0,0.0
2,2021-07-06 12:11:11.135965,186032,10.222899381814782,-0.8322439485513976,0.924832542882422,15.46585325186667,-0.19679736237817894,-14.04366024585663,0.0,0.0,0.0
2,2021-07-06 12:11:11.142979,186039,10.225739197796887,-0.826759626148621,0.925475360589809,15.519618849469673,-0.47551618154279895,-13.788653103366029,0.0,0.0,0.0
2,2021-07-06 12:11:11.151249,186048,10.228202764891176,-0.8219712731882973,0.9254031113987004,15.573443968639396,-0.7519577377834618,-13.53251506107475,0.0,0.0,0.0
2,2021-07-06 12:11:11.159294,186056,10.230290825876136,-0.8178739727869357,0.9246102966903427,15.627291303782995,-1.0258317900642084,-13.275809718783766,0.0,0.0,0.0
2,2021-07-06 12:11:11.166602,186063,10.232004784529922,-0.8144613069701846,0.9230919891882503,15.681124350464081,-1.2968462627158475,-13.019097114238933,0.0,0.0,0.0
2,2021-07-06 12:11:11.174340,186071,10.233346685625929,-0.8117253925069213,0.9208438796514891,15.734907551770414,-1.5647071204159406,-12.762932220085515,0.0,0.0,0.0
2,2021-07-06 12:11:11.183206,186080,10.23431919754228,-0.8096569201046532,0.9178623276091649,15.788606440282853,-1.8291182764642107,-12.507863485499671,0.0,0.0,0.0
2,2021-07-06 12:11:11.190677,186087,10.234925598680109,-0.8082451960204391,0.9141444165184931,15.84218777697224,-2.089781541782459,-12.254431420653576,0.0,0.0,0.0
2,2021-07-06 12:11:11.198355,186095,10.235169767745873,-0.8074781857528508,0.9096880118340965,15.895619687684333,-2.3463966233190794,-12.003167220332257,0.0,0.0,0.0
2,2021-07-06 12:11:11.205768,186102,10.235056176795258,-0.8073425599809686,0.9044918176655025,15.948871795434876,-2.598661176557675,-11.754591429272294,0.0,0.0,0.0
2,2021-07-06 12:11:11.212884,186109,10.234589885408079,-0.8078237431084394,0.8985554265418497,16.001915345007728,-2.846270912814512,-11.509212657548733,0.0,0.0,0.0
2,2021-07-06 12:11:11.219985,186116,10.233776534686047,-0.8089059646265468,0.8918793598249993,16.054723317129753,-3.0889197620363538,-11.267526352178963,0.0,0.0,0.0
2,2021-07-06 12:11:11.227143,186123,10.232622340363545,-0.8105723132183514,0.8844651017885018,16.10727053090694,-3.326300092039543,-11.030013627154258,0.0,0.0,0.0
2,2021-07-06 12:11:11.236302,186133,10.231134084731769,-0.8128047933204476,0.8763151333744902,16.159533733857003,-3.5581029845281895,-10.797140152694789,0.0,0.0,0.0
2,2021-07-06 12:11:11.244388,186141,10.229319107643507,-0.8155843836432192,0.8674329700657496,16.21149167942796,-3.7840185690924635,-10.569355103471258,0.0,0.0,0.0
2,2021-07-06 12:11:11.251711,186148,10.227185297699467,-0.818891096754602,0.857823204862831,16.263125192239567,-4.003736416394871,-10.347090166093029,0.0,0.0,0.0
2,2021-07-06 12:11:11.260921,186157,10.224741084926329,-0.8227040385456462,0.8474915547696318,16.31441722118808,-4.216945989591746,-10.13075860889659,0.0,0.0,0.0
2,2021-07-06 12:11:11.268625,186165,10.22199543531749,-0.8270014665768552,0.8364449076302496,16.365352880773074,-4.4233371522634455,-9.920754417902415,0.0,0.0,0.0
2,2021-07-06 12:11:11.276792,186173,10.218957846489566,-0.8317608468650439,0.8246913657167694,16.415919481688142,-4.6226007332407395,-9.71745150003554,0.0,0.0,0.0
2,2021-07-06 12:11:11.285313,186182,10.21563834334397,-0.8369589095055678,0.812240283728102,16.466106552051784,-4.814429150604344,-9.521202951278587,0.0,0.0,0.0
2,2021-07-06 12:11:11.292244,186189,10.212047472700828,-0.8425717044458393,0.799102300830565,16.515905850143206,-4.998517095442507,-9.33234038692254,0.0,0.0,0.0
2,2021-07-06 12:11:11.300695,186197,10.2081962960383,-0.8485746588693382,0.7852893669225945,16.56531136861623,-5.174562271562737,-9.151173333585955,0.0,0.0,0.0
2,2021-07-06 12:11:11.308995,186205,10.204096379857456,-0.8549426365783833,0.7708147619443892,16.614319329730428,-5.342266184367794,-8.977988684900312,0.0,0.0,0.0
2,2021-07-06 12:11:11.316782,186213,10.19975978365861,-0.861649998673137,0.7556931058526059,16.662928171470316,-5.50133497305084,-8.813050222147154,0.0,0.0,0.0
2,2021-07-06 12:11:11.324429,186221,10.19519904588963,-0.8686706649172549,0.7399403579604411,16.711138524991583,-5.6514802831655135,-8.656598198722909,0.0,0.0,0.0
2,2021-07-06 12:11:11.331896,186228,10.190427168574386,-0.8759781759426974,0.7235738070590382,16.75895318382483,-5.792420177013179,-8.508848986368664,0.0,0.0,0.0
2,2021-07-06 12:11:11.338419,186235,10.185457601292041,-0.8835457567197953,0.7066120554590934,16.80637706472932,-5.92388007654574,-8.369994782320333,0.0,0.0,0.0
2,2021-07-06 12:11:11.346501,186243,10.180304224433414,-0.8913463813107131,0.6890749995536286,16.85341715985145,-6.0455937315581965,-8.240203377341137,0.0,0.0,0.0
2,2021-07-06 12:11:11.355679,186252,10.174981330875577,-0.8993528385286772,0.6709838078259612,16.900082480331882,-6.157304207139375,-8.119617983648684,0.0,0.0,0.0
2,2021-07-06 12:11:11.364032,186260,10.169503605111872,-0.9075377981872881,0.6523608956335403,16.94638399238957,-6.2587648862534,-8.008357120558468,0.0,0.0,0.0
2,2021-07-06 12:11:11.371794,186268,10.163886099226183,-0.9158738778407353,0.6332298950052406,16.992334547464047,-6.3497404822105965,-7.906514556262653,0.0,0.0,0.0
2,2021-07-06 12:11:11.379220,186276,10.158144205549402,-0.9243337099284151,0.6136156179303252,17.037948807737305,-6.43000805232668,-7.814159306388228,0.0,0.0,0.0
2,2021-07-06 12:11:11.386843,186283,10.1522936263504,-0.9328900091381982,0.5935440134343206,17.08324316763915,-6.499358002426623,-7.731335691721359,0.0,0.0,0.0
2,2021-07-06 12:11:11.395673,186292,10.146350341203856,-0.9415156397981308,0.5730421202579399,17.128235671618256,-6.557595073747225,-7.658063457187527,0.0,0.0,0.0
2,2021-07-06 12:11:11.404134,186300,10.140330572462892,-0.9501836831369553,0.5521380166736177,17.17294592867741,-6.604539307003363,-7.594337952351535,0.0,0.0,0.0
2,2021-07-06 12:11:11.411830,186308,10.13425074883497,-0.9588675041587238,0.5308607679342038,17.217395024230736,-6.64002697960624,-7.540130372384392,0.0,0.0,0.0
2,2021-07-06 12:11:11.420209,186317,10.128127466755172,-0.9675408178351221,0.5092403713411247,17.261605429703813,-6.663911510863619,-7.495388058557809,0.0,0.0,0.0
2,2021-07-06 12:11:11.428906,186325,10.121977449048607,-0.9761777545973901,0.4873076987434799,17.305600910619763,-6.676064329043777,-7.460034857772322,0.0,0.0,0.0
2,2021-07-06 12:11:11.435725,186332,10.115817500296515,-0.9847529254920053,0.46509443603680073,17.34940643447508,-6.676375694885447,-7.433971540602516,0.0,0.0,0.0
2,2021-07-06 12:11:11.443568,186340,10.109664458547737,-0.9932414874785246,0.44263301911751346,17.39304807941777,-6.664755477238239,-7.417076277411853,0.0,0.0,0.0
2,2021-07-06 12:11:11.451500,186348,10.103535143493433,-1.001619209175776,0.41995656597260356,17.436552943273906,-6.641133876261719,-7.409205172809549,0.0,0.0,0.0
2,2021-07-06 12:11:11.458613,186355,10.097446301612974,-1.009862537037237,0.39709880491010574,17.479949050995494,-6.605462088289736,-7.410192859412136,0.0,0.0,0.0
2,2021-07-06 12:11:11.467218,186364,10.091414548877461,-1.0179486615819793,0.3740939989894623,17.523265258363704,-6.557712905834642,-7.4198531516387085,0.0,0.0,0.0
2,2021-07-06 12:11:11.476027,186372,10.08545631141035,-1.0258555832042915,0.35097686649610044,17.56653115072871,-6.497881246786266,-7.437979759663103,0.0,0.0,0.0
2,2021-07-06 12:11:11.483413,186380,10.07958776420851,-1.0335621774213801,0.32778249724764036,17.60977693678507,-6.425984607737863,-7.464347063677964,0.0,0.0,0.0
2,2021-07-06 12:11:11.491119,186387,10.073824767901824,-1.0410482597947899,0.30454626494965004,17.653033337937625,-6.342063436702002,-7.498710949072534,0.0,0.0,0.0
2,2021-07-06 12:11:11.499151,186395,10.068182803993547,-1.0482946504056327,0.2813037364529625,17.69633147345426,-6.246181420446372,-7.540809702896672,0.0,0.0,0.0
2,2021-07-06 12:11:11.506683,186403,10.062676910012495,-1.0552832366350724,0.25809057902538296,17.739702740992506,-6.138425681900446,-7.5903649708556635,0.0,0.0,0.0
2,2021-07-06 12:11:11.514392,186411,10.057321616612056,-1.0619970321197063,0.23494246635427868,17.783178692142805,-6.018906883275754,-7.64708277311921,0.0,0.0,0.0
2,2021-07-06 12:11:11.522137,186418,10.052130888382708,-1.0684202294840928,0.21189498303465143,17.826790903542452,-5.887759230280155,-7.710654576282195,0.0,0.0,0.0
2,2021-07-06 12:11:11.530296,186427,10.047118069693585,-1.0745382440555282,0.1889835262643315,17.870570845121655,-5.745140372423115,-7.7807584168409925,0.0,0.0,0.0
2,2021-07-06 12:11:11.537887,186434,10.042295836667291,-1.0803377456666026,0.16624320312396354,17.91454974753953,-5.591231194111431,-7.857060069999367,0.0,0.0,0.0
2,2021-07-06 12:11:11.544072,186440,10.037676156126615,-1.0858066772043369,0.14370872275053323,17.958758471002575,-5.426235491372098,-7.9392142571869355,0.0,0.0,0.0
2,2021-07-06 12:11:11.552201,186449,10.033270252022602,-1.0909342612104425,0.12141428477277849,18.003227377597327,-5.250379530742031,-8.026865883681836,0.0,0.0,0.0
2,2021-07-06 12:11:11.559341,186456,10.02908857945167,-1.0957109975633739,0.09939346758510406,18.04798620892586,-5.063911490948312,-8.119651294358878,0.0,0.0,0.0
2,2021-07-06 12:11:11.566791,186463,10.025140805701735,-1.1001286553352143,0.07767912132214123,18.093063970349135,-4.867100792857271,-8.217199534720438,0.0,0.0,0.0
2,2021-07-06 12:11:11.574913,186471,10.021435797265841,-1.1041802610915021,0.05630326993010944,18.13848882281965,-4.660237325385365,-8.319133607423147,0.0,0.0,0.0
2,2021-07-06 12:11:11.584805,186481,10.017981612005284,-1.1078600850306606,0.03529702434419334,18.184287982789243,-4.44363057634679,-8.425071718858053,0.0,0.0,0.0
2,2021-07-06 12:11:11.593550,186490,10.014785496187129,-1.1111636257587665,0.01469050594294201,18.230487629504772,-4.217608683013736,-8.534628512309867,0.0,0.0,0.0
2,2021-07-06 12:11:11.601843,186498,10.0118538858142,-1.114087594036463,-0.005487221833385369,18.27711281799885,-3.9825174238528915,-8.647416283306237,0.0,0.0,0.0
2,2021-07-06 12:11:11.610202,186507,10.009192410311714,-1.1166298953112153,-0.025208215337577868,18.324187396453485,-3.7387191716305788,-8.76304617194041,0.0,0.0,0.0
2,2021-07-06 12:11:11.617409,186514,10.006805895786675,-1.1187896104436654,-0.04444570686826781,18.37173392790279,-3.4865918191658447,-8.881129328303166,0.0,0.0,0.0
2,2021-07-06 12:11:11.624754,186521,10.0046983661493,-1.1205669738986508,-0.06317415578195275,18.419773617057213,-3.2265276798031097,-9.001278049373326,0.0,0.0,0.0
2,2021-07-06 12:11:11.632637,186529,10.002873042681678,-1.1219633485193443,-0.08136929536216152,18.46832624277487,-2.9589323607512243,-9.123106886001882,0.0,0.0,0.0
2,2021-07-06 12:11:11.641247,186538,10.001332344631692,-1.122981195772709,-0.09900817589342649,18.5174100959052,-2.684223609134683,-9.246233716761926,0.0,0.0,0.0
2,2021-07-06 12:11:11.649753,186546,10.000077894493565,-1.1236240403355364,-0.1160692035139328,18.567041921794548,-2.402830133463214,-9.370280784086814,0.0,0.0,0.0
2,2021-07-06 12:11:11.657863,186554,9.999110531483671,-1.123896428257388,-0.13253217393003486,18.61723686718558,-2.115190403109778,-9.494875688981109,0.0,0.0,0.0
2,2021-07-06 12:11:11.666997,186563,9.998430335060531,-1.1238038788092934,-0.1483783005910347,18.668008432380823,-1.8217514276330016,-9.61965234185387,0.0,0.0,0.0
2,2021-07-06 12:11:11.676098,186572,9.998036657961329,-1.1233528312984136,-0.1635902378348313,18.71936843049084,-1.522967521791843,-9.744251865674832,0.0,0.0,0.0
2,2021-07-06 12:11:11.683858,186580,9.997928166314974,-1.1225505886803306,-0.178152099981894,18.771326955503465,-1.2192990686666836,-9.868323444449514,0.0,0.0,0.0
2,2021-07-06 12:11:11.693502,186590,9.998102883320303,-1.1214052593233688,-0.1920494772895796,18.823892359871984,-0.9112112955663096,-9.991525108520026,0.0,0.0,0.0
2,2021-07-06 12:11:11.701890,186598,9.998558232889955,-1.1199256979173338,-0.20526944925517665,18.87707124102905,-0.5991730749382953,-10.113524449838671,0.0,0.0,0.0
2,2021-07-06 12:11:11.709731,186606,9.999291080620042,-1.118121447158975,-0.21780059513914504,18.9308684353855,-0.28365575836047824,-10.233999264097111,0.0,0.0,0.0
2,2021-07-06 12:11:11.716842,186613,10.000297770809576,-1.1160026823950107,-0.22963300115451682,18.985287018536795,0.0348679536758949,-10.35263812074293,0.0,0.0,0.0
2,2021-07-06 12:11:11.724609,186621,10.001574159396775,-1.1135801605790348,-0.24075826356648025,19.040328311346023,0.3559251081081398,-10.469140865040872,0.0,0.0,0.0
2,2021-07-06 12:11:11.733126,186629,10.003115643546522,-1.1108651733580432,-0.2511694865878456,19.09599189207637,0.6790435631026389,-10.583219057932915,0.0,0.0,0.0
2,2021-07-06 12:11:11.740632,186637,10.004917189030753,-1.107869503395853,-0.26086127377572554,19.152275614270916,1.0037530149478935,-10.694596359891559,0.0,0.0,0.0
2,2021-07-06 12:11:11.747985,186644,10.006973356307409,-1.1046053835089478,-0.2698297122414015,19.209175629507563,1.3295859787829218,-10.803008864987627,0.0,0.0,0.0
2,2021-07-06 12:11:11.756104,186652,10.009278325682242,-1.1010854587924666,-0.27807234998532226,19.26668641425055,1.6560787150025396,-10.90820539145023,0.0,0.0,0.0
2,2021-07-06 12:11:11.763854,186660,10.011825921471296,-1.097322751690028,-0.28558816754062155,19.32480080001862,1.9827720981371402,-11.00994773498869,0.0,0.0,0.0
2,2021-07-06 12:11:11.772295,186669,10.014609634720749,-1.0933306291406202,-0.2923775459660029,19.383510004943076,2.3092124266143332,-11.108010890719058,0.0,0.0,0.0
2,2021-07-06 12:11:11.779613,186676,10.017622644102065,-1.0891227704836006,-0.29844223389384816,19.44280366364152,2.6349521697179608,-11.202183248234405,0.0,0.0,0.0
2,2021-07-06 12:11:11.787938,186684,10.020857835277063,-1.0847131351324484,-0.3037853163633399,19.50266985306556,2.959550648878329,-11.292266762407952,0.0,0.0,0.0
2,2021-07-06 12:11:11.794976,186691,10.024307819662441,-1.080115929546681,-0.3084111875284462,19.563095114039232,3.2825746559335567,-11.37807710113069,0.0,0.0,0.0
2,2021-07-06 12:11:11.804216,186701,10.02796495346848,-1.0753455730180588,-0.31232552818712916,19.62406446974188,3.6035990170807697,-11.459443770274559,0.0,0.0,0.0
2,2021-07-06 12:11:11.811234,186708,10.031821357408607,-1.0704166613980712,-0.31553528769675326,19.685561442756054,3.922207113954191,-11.536210214198773,0.0,0.0,0.0
2,2021-07-06 12:11:11.818134,186714,10.035868937030262,-1.0653439280888672,-0.31804866869764253,19.747568072217,4.2379913718671585,-11.608233887721408,0.0,0.0,0.0
2,2021-07-06 12:11:11.825651,186722,10.040099403271777,-1.0601422027622152,-0.31987511248265016,19.81006493292605,4.550553722549236,-11.675386294968026,0.0,0.0,0.0
2,2021-07-06 12:11:11.833742,186730,10.044504292683069,-1.0548263692306303,-0.32102528301326216,19.87303115882021,4.859506047929144,-11.737552992279952,0.0,0.0,0.0
2,2021-07-06 12:11:11.843859,186740,10.0490749867827,-1.04941132367922,-0.3215110485700738,19.936444472866288,5.164470611498536,-11.79463355499563,0.0,0.0,0.0
2,2021-07-06 12:11:11.851308,186748,10.053802730012148,-1.043911933728404,-0.32134546128351177,20.00028122393763,5.465080480726182,-11.846541509854276,0.0,0.0,0.0
2,2021-07-06 12:11:11.858598,186755,10.05867864562101,-1.0383429985609414,-0.32054273541294154,20.0645164297202,5.76097993895163,-11.893204235530657,0.0,0.0,0.0
2,2021-07-06 12:11:11.865965,186762,10.0636937487995,-1.0327192106070184,-0.31911822502282394,20.12912382446153,6.051824883267521,-11.934562834105149,0.0,0.0,0.0
2,2021-07-06 12:11:11.873702,186770,10.068838956627859,-1.0270551194321516,-0.31708840114710046,20.194075911278908,6.337283207862433,-11.970571976468365,0.0,0.0,0.0
2,2021-07-06 12:11:11.880920,186777,10.074105094995799,-1.0213650982386648,-0.3144708278756431,20.259344019518057,6.617035176864153,-12.001199724455441,0.0,0.0,0.0
2,2021-07-06 12:11:11.890740,186787,10.079482903393545,-1.0156633130481618,-0.31128413601200766,20.324898367447414,6.890773792774011,-12.026427331949597,0.0,0.0,0.0
2,2021-07-06 12:11:11.897935,186794,10.084963038906807,-1.0099636944461585,-0.30754799255732834,20.39070813015984,7.158205166425148,-12.046249026667923,0.0,0.0,0.0
2,2021-07-06 12:11:11.906809,186803,10.09053608069114,-1.0042799116765593,-0.3032830648159145,20.456741512675727,7.419048893825238,-12.060671773924355,0.0,0.0,0.0
2,2021-07-06 12:11:11.916039,186812,10.096192536015039,-0.9986253487948229,-0.2985109789132606,20.522965828014204,7.673038442385867,-12.06971502315072,0.0,0.0,0.0
2,2021-07-06 12:11:11.923890,186820,10.10192284873762,-0.993013082565818,-0.2932542730556819,20.58934757910641,7.919921543478745,-12.073410437347654,0.0,0.0,0.0
2,2021-07-06 12:11:11.930759,186827,10.107717410568652,-0.9874558618254867,-0.28753634580533927,20.6558525429015,8.159460583477374,-12.071801605241696,0.0,0.0,0.0
2,2021-07-06 12:11:11.937685,186834,10.113566574714762,-0.9819660880501953,-0.2813813995994573,20.722445855185722,8.391432983575411,-12.064943736107205,0.0,0.0,0.0
2,2021-07-06 12:11:11.946686,186843,10.11946067091825,-0.976555796857269,-0.274814380046941,20.789092095150096,8.615631559791606,-12.05290333791742,0.0,0.0,0.0
2,2021-07-06 12:11:11.955612,186852,10.125390020806957,-0.9712366401498079,-0.2678609117544446,20.855755369602885,8.831864858518868,-12.035757879991811,0.0,0.0,0.0
2,2021-07-06 12:11:11.963292,186860,10.13134495300548,-0.9660198687378692,-0.2605472311552152,20.922399397557925,9.039957467525062,-12.01359544122082,0.0,0.0,0.0
2,2021-07-06 12:11:11.970509,186867,10.13731581819147,-0.9609163155164623,-0.2529001163353749,20.988987596035674,9.23975030403843,-11.98651434474069,0.0,0.0,0.0
2,2021-07-06 12:11:11.979340,186876,10.143293004636707,-0.9559363794104432,-0.24494681357668452,21.055483167709667,9.431100881265587,-11.954622779679992,0.0,0.0,0.0
2,2021-07-06 12:11:11.985643,186882,10.149266954585853,-0.9510900100959554,-0.23671496023481461,21.121849191140278,9.613883554836619,-11.918038409943067,0.0,0.0,0.0
2,2021-07-06 12:11:11.992840,186889,10.15522818135804,-0.9463866931796678,-0.2282325036202923,21.188048714073744,9.787989749521111,-11.876887969361135,0.0,0.0,0.0
2,2021-07-06 12:11:11.999971,186896,10.161167286735184,-0.9418354355016914,-0.21952761605697618,21.254044849291155,9.953328163156066,-11.831306842798524,0.0,0.0,0.0
2,2021-07-06 12:11:12.008195,186905,10.167074978246637,-0.9374447506083771,-0.21062860726015892,21.31980087176543,10.109824942343014,-11.781438633808104,0.0,0.0,0.0
2,2021-07-06 12:11:12.016056,186912,10.172942086211805,-0.9332226447807638,-0.20156383577907008,21.38528031618999,10.257423825493637,-11.727434719946638,0.0,0.0,0.0
2,2021-07-06 12:11:12.023504,186920,10.17875958060773,-0.9291766040137903,-0.19236162102880924,21.45044707456213,10.396086251304519,-11.669453796548503,0.0,0.0,0.0
2,2021-07-06 12:11:12.032348,186929,10.184518587904869,-0.9253135822410141,-0.18305015705390354,21.515265493299857,10.525791431311198,-11.607661409610827,0.0,0.0,0.0
2,2021-07-06 12:11:12.039657,186936,10.190210408030154,-0.9216399910502223,-0.17365742893568936,21.57970046902207,10.646536384616013,-11.542229478464872,0.0,0.0,0.0
2,2021-07-06 12:11:12.046910,186943,10.195826531650171,-0.9181616910404896,-0.16421113222527536,21.643717542766257,10.758335933811207,-11.47333580857671,0.0,0.0,0.0
2,2021-07-06 12:11:12.053951,186950,10.201358657972817,-0.914883984890618,-0.15473859510404095,21.70728299310734,10.861222661981325,-11.401163594941114,0.0,0.0,0.0
2,2021-07-06 12:11:12.061748,186958,10.206798713123902,-0.9118116123124248,-0.14526670289992152,21.770363928380714,10.955246829919854,-11.325900917453692,0.0,0.0,0.0
2,2021-07-06 12:11:12.069879,186966,10.212138868893076,-0.9089487472948699,-0.13582182520252672,21.832928377807644,11.040476252278664,-11.247740230183666,0.0,0.0,0.0
2,2021-07-06 12:11:12.078014,186974,10.217371561523457,-0.9062989980803218,-0.12642974629467724,21.89494538159354,11.116996132455245,-11.166877845746356,0.0,0.0,0.0
2,2021-07-06 12:11:12.086042,186982,10.222489510420461,-0.903865409844533,-0.11711559938903031,21.95638508043477,11.184908857333443,-11.083513414678311,0.0,0.0,0.0
2,2021-07-06 12:11:12.093360,186990,10.22748573693408,-0.9016504692654328,-0.10790380470223926,22.01721880431652,11.244333752996967,-10.997849399413097,0.0,0.0,0.0
2,2021-07-06 12:11:12.101460,186998,10.232353583293323,-0.8996561097195633,-0.09881801142521164,22.077419159384142,11.295406801208976,-10.91009054359277,0.0,0.0,0.0
2,2021-07-06 12:11:12.109921,187006,10.237086731318726,-0.8978837160604219,-0.08988104411524218,22.13696011134267,11.338280315162828,-10.820443338693973,0.0,0.0,0.0
2,2021-07-06 12:11:12.117902,187014,10.241679220218876,-0.8963341284425705,-0.08111485423895326,22.195817064623366,11.373122573000026,-10.729115489805986,0.0,0.0,0.0
2,2021-07-06 12:11:12.125690,187022,10.24612546290684,-0.8950076450824065,-0.07254047703037644,22.25396693746497,11.400117408854518,-10.636315381321031,0.0,0.0,0.0
2,2021-07-06 12:11:12.135027,187031,10.25042026055362,-0.8939040242184727,-0.06417799288071145,22.311388232977404,11.419463762486625,-10.542251543283605,0.0,0.0,0.0
2,2021-07-06 12:11:12.143085,187039,10.254558815270913,-0.8930224859613591,-0.056046491960242396,22.368061105344573,11.43137518898381,-10.447132120503182,0.0,0.0,0.0
2,2021-07-06 12:11:12.151144,187047,10.258536740990234,-0.8923617151228618,-0.04816404092661028,22.423967419773877,11.436079329846281,-10.351164347368172,0.0,0.0,0.0
2,2021-07-06 12:11:12.158892,187055,10.262350072807587,-0.8919198661599437,-0.0405476509941558,22.479090805268644,11.433817346557285,-10.254554030399511,0.0,0.0,0.0
2,2021-07-06 12:11:12.167511,187064,10.265995275237008,-0.8916945708084616,-0.03321324704242269,22.533416700162043,11.424843317596297,-10.157505039016394,0.0,0.0,0.0
2,2021-07-06 12:11:12.176267,187073,10.269469249958098,-0.8916829481361381,-0.02617563786929351,22.586932390517102,11.409423599749125,-10.060218804784203,0.0,0.0,0.0
2,2021-07-06 12:11:12.183460,187080,10.272769343563592,-0.891881616252397,-0.019448488099765418,22.639627041054343,11.3878361541402,-9.962893830678276,0.0,0.0,0.0
2,2021-07-06 12:11:12.191328,187088,10.275893355393714,-0.8922867049719441,-0.013044292466430343,22.691491718282606,11.360369836446043,-9.86572521268365,0.0,0.0,0.0
2,2021-07-06 12:11:12.199504,187096,10.278839545184223,-0.8928938690269537,-0.006974353063188347,22.742519406169727,11.327323649949363,-9.76890417511984,0.0,0.0,0.0
2,2021-07-06 12:11:12.208565,187105,10.281606640382293,-0.8936983016653591,-0.0012487597578394018,22.79270501503417,11.289005960463705,-9.672617619260397,0.0,0.0,0.0
2,2021-07-06 12:11:12.217635,187114,10.284193843359521,-0.89469474861408,0.004123626543752029,22.84204538374257,11.245733673542446,-9.577047684044475,0.0,0.0,0.0
2,2021-07-06 12:11:12.225585,187122,10.286600838763329,-0.8958775224903375,0.00913518843496433,22.890539274614696,11.197831375385137,-9.48237131864673,0.0,0.0,0.0
2,2021-07-06 12:11:12.233130,187129,10.288827800782144,-0.8972405178482242,0.01377956521258033,22.938187360614656,11.145630438600616,-9.388759868347607,0.0,0.0,0.0
2,2021-07-06 12:11:12.240629,187137,10.29087539978539,-0.8987772271054596,0.018051665783769842,22.984992204584135,11.089468093080999,-9.296378676761847,0.0,0.0,0.0
2,2021-07-06 12:11:12.247590,187144,10.29274480809144,-0.9004807575607836,0.021947682417874502,23.030958229549977,11.029686461449918,-9.205386708620143,0.0,0.0,0.0
2,2021-07-06 12:11:12.255759,187152,10.294437705138758,-0.9023438495949047,0.025465106325039018,23.076091678683582,10.966631557936132,-9.11593619687441,0.0,0.0,0.0
2,2021-07-06 12:11:12.264765,187161,10.295956282691987,-0.9043588958829747,0.028602745334047382,23.120400564306472,10.900652249319098,-9.028172316155969,0.0,0.0,0.0
2,2021-07-06 12:11:12.274143,187170,10.297303250814066,-0.9065179611582219,0.0313607426732106,23.16389460630379,10.832099177262712,-8.942232883816606,0.0,0.0,0.0
2,2021-07-06 12:11:12.283812,187180,10.298481844543442,-0.9088128024666794,0.033740594301033225,23.206585160335177,10.761323642534132,-8.858248090311571,0.0,0.0,0.0
2,2021-07-06 12:11:12.292224,187189,10.299495829302225,-0.9112348912083305,0.03574516085933915,23.24848513585006,10.688676452269533,-8.776340260510816,0.0,0.0,0.0
2,2021-07-06 12:11:12.300875,187197,10.300349501713368,-0.9137754391325213,0.03737867006010587,23.289608904029944,10.614506731503294,-8.696623646009655,0.0,0.0,0.0
2,2021-07-06 12:11:12.308597,187205,10.301047683160938,-0.9164254292234828,0.03864670657602173,23.329972196481407,10.539160701738329,-8.619204246971448,0.0,0.0,0.0
2,2021-07-06 12:11:12.316051,187212,10.301595705053293,-0.9191756499205147,0.03955618828110767,23.369591996165674,10.462980434599057,-8.544179661704367,0.0,0.0,0.0
2,2021-07-06 12:11:12.324038,187220,10.301999385979885,-0.9220167301599559,0.04011532929034337,23.408486422318756,10.386302596294925,-8.471638963059478,0.0,0.0,0.0
2,2021-07-06 12:11:12.333205,187230,10.302265001880297,-0.9249391742625847,0.04033359185018037,23.446674611243118,10.309457205019013,-8.401662601850154,0.0,0.0,0.0
2,2021-07-06 12:11:12.342025,187238,10.302399251272279,-0.9279333972030851,0.04022162993851051,23.484176594971974,10.232766425305579,-8.334322337932337,0.0,0.0,0.0
2,2021-07-06 12:11:12.351510,187248,10.3024092182476,-0.9309897601974106,0.039791226582385715,23.521013179817935,10.156543419729566,-8.269681199113911,0.0,0.0,0.0
2,2021-07-06 12:11:12.361031,187257,10.302302335825793,-0.9340986052993283,0.039055225589652354,23.55720582671889,10.081091271179798,-8.20779346703426,0.0,0.0,0.0
2,2021-07-06 12:11:12.369576,187266,10.302086351121883,-0.9372502878167003,0.03802745841614314,23.592776534975254,10.00670198195606,-8.148704688329852,0.0,0.0,0.0
2,2021-07-06 12:11:12.378325,187275,10.301769292315281,-0.9404352063128384,0.03672266801972181,23.6277477303078,9.933655551987565,-8.092451709362296,0.0,0.0,0.0
2,2021-07-06 12:11:12.386705,187283,10.30135943668757,-0.9436438302601116,0.03515643162525352,23.662142157493598,9.862219137490468,-8.039062733191663,0.0,0.0,0.0
2,2021-07-06 12:11:12.393855,187290,10.30086527922451,-0.9468667249286702,0.033345082443127894,23.69598277756241,9.79264629106789,-7.988557397515693,0.0,0.0,0.0
2,2021-07-06 12:11:12.401424,187298,10.30029550170799,-0.9500945729987246,0.031305628906339665,23.72929266949873,9.725176283579831,-7.940946871782752,0.0,0.0,0.0
2,2021-07-06 12:11:12.409161,187305,10.299658942295999,-0.9533181933188644,0.02905567092282422,23.762094936359407,9.660033507529667,-7.896233971001602,0.0,0.0,0.0
2,2021-07-06 12:11:12.416811,187313,10.298964565431907,-0.9565285581755445,0.026613314392014847,23.794412615872016,9.597426961046109,-7.854413283458666,0.0,0.0,0.0
2,2021-07-06 12:11:12.424360,187321,10.298221431758817,-0.9597168103243268,0.02399708593024021,23.826268595941364,9.537549810483696,-7.815471310245,0.0,0.0,0.0
2,2021-07-06 12:11:12.431997,187328,10.297438667572804,-0.9628742802844016,0.021225849727468764,23.857685535626263,9.480579028820207,-7.77938661616634,0.0,0.0,0.0
2,2021-07-06 12:11:12.440152,187336,10.296625433460168,-0.9659925038228571,0.018318727690591813,23.888685792000135,9.426675107027075,-7.746129993209368,0.0,0.0,0.0
2,2021-07-06 12:11:12.449894,187346,10.295790892280106,-0.9690632392735761,0.015295022026030747,23.91929135332025,9.375981836151349,-7.715664638309348,0.0,0.0,0.0
2,2021-07-06 12:11:12.459839,187356,10.29494417706072,-0.9720784842970029,0.012174137756604317,23.949523779155847,9.328626158342109,-7.6879463466529145,0.0,0.0,0.0
2,2021-07-06 12:11:12.466530,187363,10.294094359075746,-0.9750304919602514,0.008975503162871537,23.979404148020905,9.284718085637492,-7.66292372069942,0.0,0.0,0.0
2,2021-07-06 12:11:12.473679,187370,10.29325041562818,-0.9779117864459382,0.005718487885596911,24.008953012274553,9.24435068653672,-7.64053839435974,0.0,0.0,0.0
2,2021-07-06 12:11:12.482570,187379,10.292421196721632,-0.9807151789703565,0.002422319473078628,24.038190359081185,9.207600141652899,-7.620725271900929,0.0,0.0,0.0
2,2021-07-06 12:11:12.489779,187386,10.291615390153847,-0.9834337845060906,-0.0008940009301310255,24.06713557583743,9.174525870009342,-7.603412781808656,0.0,0.0,0.0
2,2021-07-06 12:11:12.497376,187394,10.290841485114024,-0.986061039729857,-0.004211783403586468,24.0958074189106,9.145170726788168,-7.588523146254378,0.0,0.0,0.0
2,2021-07-06 12:11:12.507668,187404,10.290107734711142,-0.9885907222210752,-0.007512733889891643,24.124223985382994,9.119561272337744,-7.575972666893504,0.0,0.0,0.0
2,2021-07-06 12:11:12.516160,187412,10.289422118119248,-0.9910169703939669,-0.01077903691447703,24.152402688062974,9.0977081114999,-7.565672028008958,0.0,0.0,0.0
2,2021-07-06 12:11:12.524313,187421,10.288792303165454,-0.9933343034336427,-0.013993434076243198,24.18036023412518,9.079606301400945,-7.557526618361118,0.0,0.0,0.0
2,2021-07-06 12:11:12.531989,187428,10.288225610000518,-0.9955376408589611,-0.01713929681308306,24.20811260777404,9.065235824248248,-7.551436872909423,0.0,0.0,0.0
2,2021-07-06 12:11:12.540153,187436,10.28772897612254,-0.9976223216226007,-0.020200693578754154,24.235675057373083,9.054562120246107,-7.54729863514065,0.0,0.0,0.0
2,2021-07-06 12:11:12.547237,187444,10.287308922756662,-0.9995841223580749,-0.023162452942567767,24.263062087405793,9.047536675643551,-7.54500354066614,0.0,0.0,0.0
2,2021-07-06 12:11:12.554415,187451,10.286971522597474,-1.0014192739262062,-0.026010224535823714,24.290287455534163,9.044097661938013,-7.544439422679293,0.0,0.0,0.0
2,2021-07-06 12:11:12.562055,187458,10.286722369453695,-1.0031244751536088,-0.028730538962487687,24.317364174693367,9.044170623354978,-7.545490739036929,0.0,0.0,0.0
2,2021-07-06 12:11:12.570659,187467,10.286566551327242,-1.0046969023403836,-0.03131086641649426,24.34430451932864,9.047669210248218,-7.548039019324879,0.0,0.0,0.0
2,2021-07-06 12:11:12.578404,187475,10.286508628992445,-1.0061342130329358,-0.033739672894026095,24.37112003435706,9.054495956111904,-7.551963329158405,0.0,0.0,0.0
2,2021-07-06 12:11:12.586550,187483,10.286552621507788,-1.007434543450255,-0.03600647265695268,24.39782154603587,9.064543095385185,-7.557140747677181,0.0,0.0,0.0
2,2021-07-06 12:11:12.593801,187490,10.286701998871356,-1.008596500459837,-0.03810187529741726,24.424419174858556,9.077693417568462,-7.563446851616944,0.0,0.0,0.0
2,2021-07-06 12:11:12.601261,187498,10.286959681049188,-1.009619149772098,-0.04001762535508423,24.450922350907874,9.093821150650067,-7.5707561968180075,0.0,0.0,0.0
2,2021-07-06 12:11:12.608550,187505,10.287328042000814,-1.0105020015359287,-0.04174663249730154,24.47733983200926,9.112792864978644,-7.5789427878868105,0.0,0.0,0.0
2,2021-07-06 12:11:12.617315,187514,10.287808917158136,-1.0112449937377457,-0.04328299098076249,24.50367972503727,9.134468389065324,-7.587880528976356,0.0,0.0,0.0
2,2021-07-06 12:11:12.626024,187522,10.28840361309614,-1.0118484738437716,-0.04462198854449665,24.529949510642762,9.158701731036784,-7.597443651714831,0.0,0.0,0.0
2,2021-07-06 12:11:12.635361,187532,10.289112918494581,-1.012313179842516,-0.04576010666738294,24.55615607116583,9.185342001143967,-7.6075071186959295,0.0,0.0,0.0
2,2021-07-06 12:11:12.642981,187539,10.289937115864337,-1.0126402220425594,-0.04669501475256384,24.582305721020518,9.214234330858211,-7.6179470021756375,0.0,0.0,0.0
2,2021-07-06 12:11:12.650739,187547,10.290875994144045,-1.0128310660763344,-0.04742555948869723,24.608404239038457,9.245220784236052,-7.6286408383222755,0.0,0.0,0.0
2,2021-07-06 12:11:12.659475,187556,10.291928862831119,-1.0128875165597653,-0.04795174893614048,24.634456902831342,9.278141258164199,-7.6394679578872795,0.0,0.0,0.0
2,2021-07-06 12:11:12.668187,187565,10.29309456836429,-1.0128117008491573,-0.04827473034714521,24.660468525188982,9.312834368274375,-7.6503097943454215,0.0,0.0,0.0
2,2021-07-06 12:11:12.675784,187572,10.29437151324287,-1.01260605295772,-0.048396760963841844,24.686443491547102,9.349138315187577,-7.661050170505727,0.0,0.0,0.0
2,2021-07-06 12:11:12.683092,187579,10.295757678099227,-1.0122732979385018,-0.04832117134575082,24.712385796568917,9.386891721996044,-7.671575564405199,0.0,0.0,0.0
2,2021-07-06 12:11:12.690562,187587,10.297250646589498,-1.0118164366602638,-0.04805232117815691,24.738299077889664,9.425934431014623,-7.681775354911399,0.0,0.0,0.0
2,2021-07-06 12:11:12.698521,187595,10.29884763265731,-1.0112387305043489,-0.04759554795820658,24.764186645924287,9.466108248438148,-7.691542047208967,0.0,0.0,0.0
2,2021-07-06 12:11:12.705349,187602,10.300545509525158,-1.0105436856176204,-0.04695710944710139,24.790051509505194,9.50725762981721,-7.700771478687472,0.0,0.0,0.0
2,2021-07-06 12:11:12.711865,187608,10.302340839512846,-1.0097350367577689,-0.04614412146999933,24.81589639744701,9.549230303886286,-7.709363006486376,0.0,0.0,0.0
2,2021-07-06 12:11:12.718777,187615,10.304229903650812,-1.0088167309206406,-0.04516449309155544,24.841723776094152,9.59187783483622,-7.717219678321254,0.0,0.0,0.0
2,2021-07-06 12:11:12.727387,187624,10.306208730365714,-1.0077929107069084,-0.04402686084505474,24.867535863024134,9.635056124612952,-7.724248387866575,0.0,0.0,0.0
2,2021-07-06 12:11:12.735476,187632,10.308273123004135,-1.006667897139528,-0.042740522903999684,24.89333463742576,9.67862585805241,-7.730360015354469,0.0,0.0,0.0
2,2021-07-06 12:11:12.743064,187639,10.31041868617284,-1.0054461717285517,-0.04131537347955292,24.919121847828354,9.722452894295609,-7.7354695535694225,0.0,0.0,0.0
2,2021-07-06 12:11:12.750165,187646,10.31264085081059,-1.0041323578857595,-0.039761837415336815,24.944899017635947,9.766408608205852,-7.739496219028258,0.0,0.0,0.0
2,2021-07-06 12:11:12.758205,187655,10.314934897842868,-1.0027312020012595,-0.038090804809170306,24.97066744872216,9.810370185652774,-7.742363547928375,0.0,0.0,0.0
2,2021-07-06 12:11:12.765960,187662,10.317295980344785,-1.0012475545755308,-0.0363135653957969,24.996428223490675,9.854220876425606,-7.743999476630492,0.0,0.0,0.0
2,2021-07-06 12:11:12.773696,187670,10.319719144257054,-0.9996863519003786,-0.034441742384713446,25.022182206019078,9.897850208459369,-7.7443364068811045,0.0,0.0,0.0
2,2021-07-06 12:11:12.781340,187678,10.322199347727295,-0.998052598753919,-0.03248722582916733,25.047930043021605,9.941154167255753,-7.743311256540511,0.0,0.0,0.0
2,2021-07-06 12:11:12.788732,187685,10.324731479084157,-0.9963513522250806,-0.03046210651616131,25.073672165626597,9.984035344618864,-7.740865497217501,0.0,0.0,0.0
2,2021-07-06 12:11:12.797135,187693,10.32731037345095,-0.9945877064200028,-0.028378611883449825,25.099408793224697,10.026403060717787,-7.7369451804399105,0.0,0.0,0.0
2,2021-07-06 12:11:12.806868,187703,10.329930828261748,-0.9927667778441859,-0.026249044594482705,25.12513994036689,10.068173462915295,-7.731500953393121,0.0,0.0,0.0
2,2021-07-06 12:11:12.816046,187712,10.332587618401034,-0.9908936915762531,-0.02408572277249389,25.15086542681451,10.109269603867878,-7.724488064341791,0.0,0.0,0.0
2,2021-07-06 12:11:12.824081,187720,10.335275511943646,-0.98897356848316,-0.0219009203647951,25.17658489005287,10.149621499870092,-7.7158663574434305,0.0,0.0,0.0
2,2021-07-06 12:11:12.831370,187728,10.337989287276644,-0.9870115135026469,-0.01970680730051634,25.20229779948526,10.189166168341856,-7.705600256853114,0.0,0.0,0.0
2,2021-07-06 12:11:12.838330,187735,10.340723751955085,-0.9850126047444684,-0.017515390412438943,25.228003471918463,10.227847641949483,-7.693658740238025,0.0,0.0,0.0
2,2021-07-06 12:11:12.846011,187742,10.343473763140098,-0.9829818831360638,-0.015338456000665501,25.25370108802967,10.26561695621329,-7.68001530172159,0.0,0.0,0.0
2,2021-07-06 12:11:12.853614,187750,10.346234248890223,-0.9809243424781636,-0.013187513944620548,25.279389708888125,10.302432106212452,-7.664647904049421,0.0,0.0,0.0
2,2021-07-06 12:11:12.860867,187757,10.349000229279621,-0.978844919865423,-0.011073742674810611,25.30506829120933,10.338257967273432,-7.647538919587165,0.0,0.0,0.0
2,2021-07-06 12:11:12.867940,187764,10.351766836616344,-0.9767484864160321,-0.009007934389910347,25.330735700793387,10.373066176518243,-7.628675059545104,0.0,0.0,0.0
2,2021-07-06 12:11:12.876250,187773,10.354529334581398,-0.9746398382158379,-0.007000440382505698,25.356390724783257,10.40683497532099,-7.6080472907735395,0.0,0.0,0.0
2,2021-07-06 12:11:12.884789,187781,10.357283136454301,-0.9725236873811638,-0.005061117437968993,25.382032083615034,10.439549014279732,-7.5856507402742,0.0,0.0,0.0
2,2021-07-06 12:11:12.893286,187790,10.360023822687367,-0.9704046531985885,-0.0031992779313401378,25.407658442702356,10.471199122327278,-7.5614845893054214,0.0,0.0,0.0
2,2021-07-06 12:11:12.900839,187797,10.36274715790694,-0.9682872534140348,-0.0014236468687748227,25.433268422829812,10.501782041698704,-7.535551960232543,0.0,0.0,0.0
2,2021-07-06 12:11:12.908691,187805,10.365449106959693,-0.9661758958854695,0.00025767239122683367,25.45886060763701,10.531300131245953,-7.507859798889721,0.0,0.0,0.0
2,2021-07-06 12:11:12.916624,187813,10.36812584929046,-0.9640748708454853,0.0018372240206007062,25.48443354682687,10.559761041369718,-7.478418753862342,0.0,0.0,0.0
2,2021-07-06 12:11:12.923955,187820,10.370773791028936,-0.9619883438134097,0.0033082181738053997,25.509985754757434,10.58717736428674,-7.447243053279623,0.0,0.0,0.0
2,2021-07-06 12:11:12.931713,187828,10.373389574400207,-0.9599203488615884,0.004664542703167725,25.53551570516549,10.613566263893453,-7.414350379898837,0.0,0.0,0.0
2,2021-07-06 12:11:12.938646,187835,10.375970084219576,-0.9578747817757403,0.005900768651208237,25.561021823282655,10.638949089903823,-7.379761745518265,0.0,0.0,0.0
2,2021-07-06 12:11:12.945994,187842,10.378512451414208,-0.9558553928155541,0.007012150283409857,25.586502476563588,10.66335098096187,-7.343501365333305,0.0,0.0,0.0
2,2021-07-06 12:11:12.952926,187849,10.381014053774061,-0.9538657791641303,0.007994621017654706,25.61195596481827,10.686800461682248,-7.305596532420522,0.0,0.0,0.0
2,2021-07-06 12:11:12.960370,187857,10.383472514339221,-0.9519093775926721,0.00884478703415115,25.637380509669843,10.709329038826311,-7.2660774927065725,0.0,0.0,0.0
2,2021-07-06 12:11:12.967251,187864,10.385885697924888,-0.9499894582497371,0.009559920145126806,25.66277424218366,10.730970801081488,-7.2249773210313935,0.0,0.0,0.0
2,2021-07-06 12:11:12.974461,187871,10.388251706310367,-0.9481091205229396,0.010137950863796522,25.68813518713239,10.751762025502485,-7.182331798695355,0.0,0.0,0.0
2,2021-07-06 12:11:12.981939,187878,10.390568872707645,-0.9462712913258198,0.010577461871408327,25.713461243150153,10.771740792549796,-7.1381792925832,0.0,0.0,0.0
2,2021-07-06 12:11:12.989969,187886,10.392835756361304,-0.944478725236856,0.010877681376924768,25.738750159132586,10.790946611014062,-7.092560636199924,0.0,0.0,0.0
2,2021-07-06 12:11:12.997031,187893,10.395051138211377,-0.9427340054330731,0.011038475567021316,25.763999507861698,10.809420053651653,-7.045519013198202,0.0,0.0,0.0
2,2021-07-06 12:11:13.004142,187900,10.397214018051423,-0.9410395446573183,0.01106033981632936,25.789206658250947,10.827202403485362,-6.997099843544581,0.0,0.0,0.0
2,2021-07-06 12:11:13.012203,187909,10.399323612742517,-0.9393975860812521,0.01094438922586128,25.814368748101195,10.844335309254715,-6.947350671954772,0.0,0.0,0.0
2,2021-07-06 12:11:13.019119,187915,10.401379354516815,-0.9378102042873657,0.010692349506851176,25.83948265943752,10.860860447775915,-6.8963210580381205,0.0,0.0,0.0
2,2021-07-06 12:11:13.026479,187923,10.403380888428712,-0.9362793066239934,0.010306548760845802,25.864544997886043,10.87681919236648,-6.844062467514376,0.0,0.0,0.0
2,2021-07-06 12:11:13.034371,187931,10.405328068169153,-0.9348066351399824,0.009789909732321984,25.889552076409544,10.892252289190559,-6.79062816417893,0.0,0.0,0.0
2,2021-07-06 12:11:13.041501,187938,10.407220949708108,-0.9333937692401348,0.0091459413004852,25.914499903085954,10.907199545673606,-6.736073102924741,0.0,0.0,0.0
2,2021-07-06 12:11:13.049627,187946,10.409059782819662,-0.9320421290360271,0.008378727606973531,25.939384173052726,10.9216995363561,-6.6804538242746645,0.0,0.0,0.0
2,2021-07-06 12:11:13.057699,187954,10.410845001092275,-0.9307529792325819,0.0074929134050329745,25.96420026547147,10.935789331547205,-6.623828350299979,0.0,0.0,0.0
2,2021-07-06 12:11:13.065039,187961,10.412577211023418,-0.9295274335322636,0.006493685146525098,25.988943246244975,10.949504253200937,-6.5662560812579045,0.0,0.0,0.0
2,2021-07-06 12:11:13.072312,187969,10.414257180482009,-0.9283664598549232,0.005386748560941998,26.013607876140586,10.962877661509202,-6.507797692555053,0.0,0.0,0.0
2,2021-07-06 12:11:13.079532,187976,10.415885826703864,-0.927270886652199,0.004178303793820621,26.03818862286382,10.97594077457492,-6.448515032371667,0.0,0.0,0.0
2,2021-07-06 12:11:13.087334,187984,10.417464204133807,-0.9262414100342332,0.002875018111896444,26.062679675289807,10.988722521419865,-6.388471020428553,0.0,0.0,0.0
2,2021-07-06 12:11:13.095462,187992,10.4189934925259,-0.9252786009342907,0.0014839950997419327,26.087074958552996,11.001249426688661,-6.3277295477474595,0.0,0.0,0.0
2,2021-07-06 12:11:13.102397,187999,10.420474985480388,-0.9243829117246563,1.2739518223167459e-05,26.1113681495197,11.013545524956715,-6.266355376770378,0.0,0.0,0.0
2,2021-07-06 12:11:13.109873,188006,10.421910079142503,-0.9235546822892731,-0.0015308818981127105,26.135552692707567,11.025632302635046,-6.204414041575056,0.0,0.0,0.0
2,2021-07-06 12:11:13.116960,188013,10.423300260555486,-0.9227941458521196,-0.0031386827599390894,26.159621816876065,11.037528665465002,-6.141971748315436,0.0,0.0,0.0
2,2021-07-06 12:11:13.125588,188022,10.42464709541456,-0.9221014345199,-0.004802201669584717,26.183568552529408,11.049250929850022,-6.079095275542387,0.0,0.0,0.0
2,2021-07-06 12:11:13.134049,188030,10.425952215452881,-0.9214765838218739,-0.006512748886869712,26.20738575041657,11.060812836535085,-6.015851873519569,0.0,0.0,0.0
2,2021-07-06 12:11:13.142620,188039,10.427217305917456,-0.9209195352581852,-0.008261455259589833,26.231066100987487,11.07222558556704,-5.952309161618449,0.0,0.0,0.0
2,2021-07-06 12:11:13.151451,188048,10.428444093424893,-0.9204301363316163,-0.010039324344957277,26.25460215509655,11.083497892666708,-5.8885350226443425,0.0,0.0,0.0
2,2021-07-06 12:11:13.160919,188057,10.429634334227027,-0.9200081382034111,-0.011837288907600345,26.277986346813186,11.094636068405405,-5.82459749237775,0.0,0.0,0.0
2,2021-07-06 12:11:13.167971,188064,10.430789802821987,-0.9196531915314345,-0.01364627197477335,26.301211019467345,11.10564412192464,-5.760564642715278,0.0,0.0,0.0
2,2021-07-06 12:11:13.175653,188072,10.431912280871577,-0.9193648413609029,-0.015457250708199788,26.324268455843406,11.116523890573538,-5.6965044580835045,0.0,0.0,0.0
2,2021-07-06 12:11:13.183634,188080,10.433003546452454,-0.9191425221028566,-0.01726132011698129,26.347150912676245,11.1272751958033,-5.6324847062109145,0.0,0.0,0.0
2,2021-07-06 12:11:13.191186,188088,10.434065363781365,-0.9189855534053849,-0.019049753975504975,26.36985065851131,11.1378960238647,-5.568572804526702,0.0,0.0,0.0
2,2021-07-06 12:11:13.199926,188096,10.435099473635356,-0.9188931372856913,-0.020814061510010293,26.392360013450826,11.148382728409038,-5.504835682497769,0.0,0.0,0.0
2,2021-07-06 12:11:13.207478,188104,10.436107584640018,-0.918864356573578,-0.02254603965328778,26.414671389732067,11.158730251374035,-5.441339639388359,0.0,0.0,0.0
2,2021-07-06 12:11:13.216981,188113,10.437091365486697,-0.9188981745417844,-0.02423782163669772,26.436777332601558,11.1689323573906,-5.378150197288793,0.0,0.0,0.0
2,2021-07-06 12:11:13.224479,188121,10.438052438114969,-0.9189934355107147,-0.025881922778795165,26.45867056093726,11.178981875832166,-5.315331950494927,0.0,0.0,0.0
2,2021-07-06 12:11:13.232117,188128,10.438992371991475,-0.9191488662190017,-0.02747128330225781,26.48034400697969,11.188870945220057,-5.252948413132513,0.0,0.0,0.0
2,2021-07-06 12:11:13.239689,188136,10.43991267968376,-0.9193630777919622,-0.028999306991897858,26.50179085477305,11.198591256561292,-5.191061866457721,0.0,0.0,0.0
2,2021-07-06 12:11:13.246244,188143,10.440814813811375,-0.919634568097844,-0.030459894457832693,26.5230045772202,11.208134293489255,-5.129733205984523,0.0,0.0,0.0
2,2021-07-06 12:11:13.253709,188150,10.441700165216314,-0.9199617241384568,-0.031847470217819945,26.543978971578674,11.217491567004396,-5.069021787897639,0.0,0.0,0.0
2,2021-07-06 12:11:13.262377,188159,10.44257006207869,-0.9203428240784641,-0.03315700319818684,26.564708192855502,11.226654841811984,-5.0089852747142185,0.0,0.0,0.0
2,2021-07-06 12:11:13.269223,188166,10.44342576982657,-0.9207760387232695,-0.034384020674463035,26.585186784394068,11.235616350816311,-4.949679480918463,0.0,0.0,0.0
2,2021-07-06 12:11:13.276368,188173,10.444268491876242,-0.921259432511527,-0.03552461615826275,26.605409705223938,11.244368994745981,-4.8911582192129135,0.0,0.0,0.0
2,2021-07-06 12:11:13.285292,188182,10.445099371307125,-0.9217909641605344,-0.03657545239607725,26.625372354242774,11.252906524662759,-4.833473147321207,0.0,0.0,0.0
2,2021-07-06 12:11:13.293741,188190,10.445919493501162,-0.9223684870646336,-0.03753376156546009,26.64507059152897,11.261223705528579,-4.7766736151799165,0.0,0.0,0.0
2,2021-07-06 12:11:13.301907,188198,10.446729889500025,-0.9229897495957642,-0.03839734502350373,26.66450075667289,11.269316459545363,-4.7208065132742165,0.0,0.0,0.0
2,2021-07-06 12:11:13.309155,188205,10.447531539373164,-0.9236523956144805,-0.03916457383981358,26.683659683224572,11.277181989438278,-4.665916123776669,0.0,0.0,0.0
2,2021-07-06 12:11:13.316749,188213,10.448325374659326,-0.9243539655806678,-0.039834389870768795,26.702544708054955,11.284818883221892,-4.612043976068611,0.0,0.0,0.0
2,2021-07-06 12:11:13.324522,188221,10.449112279311208,-0.9250918984950933,-0.040406306416358576,26.721153675043276,11.29222720185641,-4.55922870768857,0.0,0.0,0.0
2,2021-07-06 12:11:13.332441,188229,10.449893089234042,-0.9258635346160607,-0.040880407243144276,26.739484933371166,11.299408550089236,-4.507505931946513,0.0,0.0,0.0
2,2021-07-06 12:11:13.340247,188237,10.450668590880676,-0.9266661187370384,-0.04125734273260398,26.757537331137346,11.3063661302102,-4.4569081137897095,0.0,0.0,0.0
2,2021-07-06 12:11:13.348158,188244,10.45143951932393,-0.9274968038639042,-0.04153832253080013,26.775310205060993,11.313104779177243,-4.407464454860141,0.0,0.0,0.0
2,2021-07-06 12:11:13.355646,188252,10.452206556088742,-0.9283526552703437,-0.04172510504913272,26.79280336699303,11.319630991040457,-4.359200788000157,0.0,0.0,0.0
2,2021-07-06 12:11:13.362978,188259,10.452970327072288,-0.9292306550496575,-0.04181998448047963,26.810017088095595,11.32595292736855,-4.312139481887766,0.0,0.0,0.0
2,2021-07-06 12:11:13.370173,188266,10.45373140108211,-0.9301277074207828,-0.04182577534812787,26.82695208202227,11.332080417752236,-4.266299357256928,0.0,0.0,0.0
2,2021-07-06 12:11:13.377251,188274,10.454490289613993,-0.9310406450984142,-0.04174579387569392,26.843609488698927,11.338024951253338,-4.221695616049143,0.0,0.0,0.0
2,2021-07-06 12:11:13.385045,188281,10.455247448307313,-0.9319662368776858,-0.04158383536901714,26.859990859576836,11.343799658668472,-4.178339783850231,0.0,0.0,0.0
2,2021-07-06 12:11:13.392282,188289,10.456003280221287,-0.9329011962956215,-0.04134414703362919,26.876098143743377,11.349419284634862,-4.136239665132939,0.0,0.0,0.0
2,2021-07-06 12:11:13.400842,188297,10.456758140914618,-0.9338421910717575,-0.04103139580638903,26.8919336734292,11.35490014819974,-4.095399310467594,0.0,0.0,0.0
2,2021-07-06 12:11:13.408654,188305,10.457512345306267,-0.9347858531092061,-0.040650630916776974,26.90750014802609,11.360260090906644,-4.055818994331613,0.0,0.0,0.0
2,2021-07-06 12:11:13.416370,188313,10.458266176285878,-0.9357287889758314,-0.04020724107629235,26.922800616810832,11.36551841200338,-4.017495201609743,0.0,0.0,0.0
2,2021-07-06 12:11:13.425952,188322,10.459019894812524,-0.9366675907396345,-0.03970690639595081,26.93783846098816,11.370695789696406,-3.9804206213494044,0.0,0.0,0.0
2,2021-07-06 12:11:13.434233,188331,10.45977375078544,-0.9375988468258839,-0.03915554546193945,26.95261737534122,11.375814185504922,-3.944584147921662,0.0,0.0,0.0
2,2021-07-06 12:11:13.441430,188338,10.460527993694729,-0.9385191525405084,-0.038559258659541476,26.96714134916904,11.380896727853326,-3.909970891158517,0.0,0.0,0.0
2,2021-07-06 12:11:13.449539,188346,10.461282882271346,-0.9394251202485625,-0.037924269706459623,26.981414645661147,11.385967572497119,-3.8765621972087994,0.0,0.0,0.0
2,2021-07-06 12:11:13.458109,188354,10.462038692764674,-0.9403133895728158,-0.0372568676877703,26.99544177884325,11.391051739743391,-3.8443356810464304,0.0,0.0,0.0
2,2021-07-06 12:11:13.465842,188362,10.462795725636878,-0.9411806380687223,-0.03656335117228909,27.0092274880023,11.396174930241704,-3.8132652707711765,0.0,0.0,0.0
2,2021-07-06 12:11:13.472888,188369,10.46355431037595,-0.9420235927438549,-0.035849974879717875,27.022776710494746,11.401363322747587,-3.783321263789712,0.0,0.0,0.0
2,2021-07-06 12:11:13.481937,188378,10.464314808175331,-0.9428390425820773,-0.03512289870204523,27.03609455394522,11.406643358604628,-3.7544703955509573,0.0,0.0,0.0
2,2021-07-06 12:11:13.489449,188386,10.465077612595778,-0.9436238518501283,-0.03438813869333606,27.049186267856303,11.41204151788311,-3.726675921999422,0.0,0.0,0.0
2,2021-07-06 12:11:13.496715,188393,10.465843148651384,-0.9443749736871658,-0.033651519700340055,27.06205721385364,11.417584091248298,-3.699897716805758,0.0,0.0,0.0
2,2021-07-06 12:11:13.505449,188402,10.466611870647027,-0.9450894636139406,-0.032918629648893874,27.074712834289624,11.423296950768218,-3.67409238410604,0.0,0.0,0.0
2,2021-07-06 12:11:13.515064,188411,10.467384258745343,-0.9457644929271533,-0.03219477604088779,27.08715862013156,11.42920532287019,-3.649213387585742,0.0,0.0,0.0
2,2021-07-06 12:11:13.522366,188419,10.46816081421853,-0.9463973620113835,-0.0314849454911591,27.099400079638983,11.435333567217151,-3.6252111968463674,0.0,0.0,0.0
2,2021-07-06 12:11:13.528553,188425,10.468942053777058,-0.946985513336871,-0.030793766877488866,27.111442708965974,11.441704965411668,-3.6020334512389542,0.0,0.0,0.0
2,2021-07-06 12:11:13.536702,188433,10.46972850376734,-0.947526543706868,-0.030125478247029762,27.123291965211305,11.448341522657676,-3.579625140244473,0.0,0.0,0.0
2,2021-07-06 12:11:13.544515,188441,10.470520695053704,-0.9480182154994489,-0.029483897440195955,27.13495324203137,11.455263783864643,-3.5579287990216444,0.0,0.0,0.0
2,2021-07-06 12:11:13.552956,188449,10.471319159294534,-0.9484584670501814,-0.028872396430806697,27.14643184758713,11.462490663782338,-3.5368847178802825,0.0,0.0,0.0
2,2021-07-06 12:11:13.560193,188457,10.472124427175824,-0.9488454225075168,-0.028293879446767985,27.157732984378878,11.470039289680493,-3.5164311645567006,0.0,0.0,0.0
2,2021-07-06 12:11:13.567850,188464,10.472937028595798,-0.9491774012186796,-0.027750765010460546,27.168861730574132,11.477924854963083,-3.4965046179034323,0.0,0.0,0.0
2,2021-07-06 12:11:13.575976,188472,10.473757493825142,-0.9494529262091227,-0.027244972241294796,27.17982302247824,11.486160482125632,-3.4770400111006134,0.0,0.0,0.0
2,2021-07-06 12:11:13.583319,188480,10.47458635404739,-0.9496707312464278,-0.02677791222276725,27.1906216377466,11.4947570937996,-3.4579709823352305,0.0,0.0,0.0
2,2021-07-06 12:11:13.591053,188487,10.47542413988207,-0.9498297665779573,-0.026350485842890885,27.201262179076984,11.503723291896733,-3.4392301313612768,0.0,0.0,0.0
2,2021-07-06 12:11:13.599435,188496,10.476271377141643,-0.9499292040115282,-0.02596308967024419,27.21174905842602,11.513065246309415,-3.420749280958939,0.0,0.0,0.0
2,2021-07-06 12:11:13.607257,188504,10.47712857974008,-0.9499684418899813,-0.025615630583202154,27.222086481941844,11.522786595514233,-3.40245974261171,0.0,0.0,0.0
2,2021-07-06 12:11:13.616716,188513,10.477996240264314,-0.9499471099326586,-0.025307548411751018,27.232278435692518,11.53288836233322,-3.384292585827416,0.0,0.0,0.0
2,2021-07-06 12:11:13.625190,188522,10.478874819087931,-0.9498650734078072,-0.025037844686184228,27.242328672141777,11.543368889196689,-3.3661789104266857,0.0,0.0,0.0
2,2021-07-06 12:11:13.632713,188529,10.47976473290715,-0.9497224358113964,-0.024805115136133718,27.252240697417225,11.5542237977725,-3.348050120668094,0.0,0.0,0.0
2,2021-07-06 12:11:13.640682,188537,10.480666343377564,-0.9495195392333028,-0.024607583855936945,27.26201775960452,11.56544597721797,-3.3298381995654758,0.0,0.0,0.0
2,2021-07-06 12:11:13.649028,188545,10.481579946438869,-0.9492569620015426,-0.024443137947519466,27.27166283825286,11.577025603596093,-3.3114759813612293,0.0,0.0,0.0
2,2021-07-06 12:11:13.656768,188553,10.482505763034975,-0.9489355137887198,-0.02430936247984743,27.281178635007883,11.58895019084063,-3.2928974196288037,0.0,0.0,0.0
2,2021-07-06 12:11:13.665782,188562,10.483443931983627,-0.9485562286827306,-0.02420357615559392,27.290567565398298,11.601204671702318,-3.2740378480775294,0.0,0.0,0.0
2,2021-07-06 12:11:13.674974,188571,10.48439450539647,-0.9481203566511883,-0.024122868050216996,27.29983175258423,11.613771505495357,-3.254834231265918,0.0,0.0,0.0
2,2021-07-06 12:11:13.681948,188578,10.48535744632986,-0.9476293537381276,-0.024064135424235848,27.308973024491372,11.626630808591834,-3.2352254029692085,0.0,0.0,0.0
2,2021-07-06 12:11:13.689233,188586,10.486332627589213,-0.9470848714795913,-0.02402412214418654,27.317992915454838,11.639760503971635,-3.215152290482615,0.0,0.0,0.0
2,2021-07-06 12:11:13.698002,188594,10.487319830353115,-0.9464887461360746,-0.023999456956243868,27.326892672786027,11.653136487323673,-3.1945581235155642,0.0,0.0,0.0
2,2021-07-06 12:11:13.705161,188601,10.48831874188158,-0.9458429880837425,-0.023986690789164357,27.335673268154707,11.666732808238901,-3.173388626623277,0.0,0.0,0.0
2,2021-07-06 12:11:13.712451,188609,10.489328952575358,-0.9451497712482468,-0.023982332177360073,27.344335413252363,11.680521865384062,-3.151592194409486,0.0,0.0,0.0
2,2021-07-06 12:11:13.719463,188616,10.49034995317318,-0.944411422232095,-0.023982879877541108,27.352879578958557,11.694474614512737,-3.1291200489864504,0.0,0.0,0.0
2,2021-07-06 12:11:13.727455,188624,10.491381132575873,-0.943630408958039,-0.023984852156015302,27.361306017366772,11.708560788089036,-3.1059263796170145,0.0,0.0,0.0
2,2021-07-06 12:11:13.734889,188631,10.492421776166605,-0.9428093290063687,-0.02398481288357366,27.36961478620064,11.722749124805496,-3.081968465380694,0.0,0.0,0.0
2,2021-07-06 12:11:13.742828,188639,10.493471064336333,-0.9419508979590289,-0.02397939494148348,27.37780577510466,11.73700760633896,-3.057206782651659,0.0,0.0,0.0
2,2021-07-06 12:11:13.750157,188646,10.494528071415857,-0.9410579378403509,-0.023965321350628472,27.38587873326253,11.751303698064456,-3.031605099392785,0.0,0.0,0.0
2,2021-07-06 12:11:13.758147,188654,10.495591765703558,-0.9401333654477096,-0.023939424265575448,27.393833297939004,11.765604590706124,-3.00513055766215,0.0,0.0,0.0
2,2021-07-06 12:11:13.765901,188662,10.496661011186504,-0.9391801802253,-0.02389866172319518,27.40166902365256,11.779877440619423,-2.9777537448495663,0.0,0.0,0.0
2,2021-07-06 12:11:13.774383,188671,10.497734571121148,-0.9382014513321012,-0.023840131783112086,27.409385411536434,11.794089606472292,-2.949448753706264,0.0,0.0,0.0
2,2021-07-06 12:11:13.781940,188678,10.498811113341574,-0.9372003038517636,-0.02376108349049606,27.416981938162124,11.808208879184837,-2.9201932313746535,0.0,0.0,0.0
2,2021-07-06 12:11:13.789315,188686,10.499889217085384,-0.9361799047748877,-0.023658924040434817,27.424458083004954,11.822203701029594,-2.8899684178618967,0.0,0.0,0.0
2,2021-07-06 12:11:13.796728,188693,10.500967381150636,-0.9351434498236149,-0.023531221723496244,27.431813353905806,11.8360433699408,-2.8587591741622864,0.0,0.0,0.0
2,2021-07-06 12:11:13.804270,188701,10.50204403322038,-0.9340941517276725,-0.02337570487184029,27.439047310073125,11.849698226378738,-2.826553999424589,0.0,0.0,0.0
2,2021-07-06 12:11:13.813065,188709,10.50311754015926,-0.9330352295859121,-0.02319025799449112,27.446159582138247,11.863139821359336,-2.793345035655732,0.0,0.0,0.0
2,2021-07-06 12:11:13.821608,188718,10.504186219036047,-0.931969898404302,-0.022972916861141137,27.45314988871424,11.87634106488945,-2.7591280580599387,0.0,0.0,0.0
2,2021-07-06 12:11:13.828716,188725,10.505248348566283,-0.9309013581118682,-0.022721864104427468,27.460018049098572,11.889276354629425,-2.7239024495251063,0.0,0.0,0.0
2,2021-07-06 12:11:13.835671,188732,10.506302180540148,-0.9298327818654104,-0.022435426482970727,27.466763992107847,11.901921685412832,-2.6876711587412903,0.0,0.0,0.0
2,2021-07-06 12:11:13.843186,188740,10.507345950708642,-0.9287673037979743,-0.022112074464751007,27.47338776153871,11.91425474118651,-2.6504406421245745,0.0,0.0,0.0
2,2021-07-06 12:11:13.851101,188747,10.508377888710937,-0.9277080064898982,-0.021750423977907263,27.479889519507744,11.926254971944507,-2.612220789507509,0.0,0.0,0.0
2,2021-07-06 12:11:13.858678,188755,10.509396226859659,-0.9266579084228672,-0.02134923948249915,27.486269549373766,11.937903658709423,-2.5730248329425223,0.0,0.0,0.0
2,2021-07-06 12:11:13.867995,188764,10.510399207806984,-0.9256199515397894,-0.020907437537394317,27.49252825946456,11.949183969081975,-2.5328692380612687,0.0,0.0,0.0
2,2021-07-06 12:11:13.875155,188771,10.51138509127461,-0.924596988882072,-0.020424090455323507,27.498666187795504,11.96008100502195,-2.4917735785884547,0.0,0.0,0.0
2,2021-07-06 12:11:13.882886,188779,10.512352160144621,-0.92359177229942,-0.01989842995721946,27.504684007170397,11.970581844146624,-2.4497603957730165,0.0,0.0,0.0
2,2021-07-06 12:11:13.890550,188787,10.51329872624873,-0.9226069404439351,-0.019329850935918227,27.510582529746916,11.980675575833823,-2.406855044527376,0.0,0.0,0.0
2,2021-07-06 12:11:13.899222,188796,10.514223136183128,-0.9216450074220014,-0.018717915537477363,27.516362710213006,11.990353333282671,-2.363085527233601,0.0,0.0,0.0
2,2021-07-06 12:11:13.907682,188804,10.515123777520971,-0.9207083524096241,-0.018062357674191842,27.522025646910418,11.999608322028825,-2.3184823158818753,0.0,0.0,0.0
2,2021-07-06 12:11:13.915872,188812,10.515999085894332,-0.9197992104186977,-0.01736308787471224,27.52757258031331,12.00843584413006,-2.2730781642734694,0.0,0.0,0.0
2,2021-07-06 12:11:13.925204,188822,10.51684755323234,-0.9189196645179298,-0.01662019823664583,27.533004888460052,12.016833315435234,-2.226907913389048,0.0,0.0,0.0
2,2021-07-06 12:11:13.932956,188829,10.51766773679734,-0.918071640139874,-0.015833967235182895,27.538324079568856,12.024800271530651,-2.1800082930982456,0.0,0.0,0.0
2,2021-07-06 12:11:13.940279,188837,10.51845826812178,-0.9172569022542195,-0.015004864198126171,27.543531782621702,12.032338357370728,-2.132417722199706,0.0,0.0,0.0
2,2021-07-06 12:11:13.947517,188844,10.519217861015733,-0.9164770558677264,-0.014133553323700204,27.548629736417308,12.039451296639841,-2.0841761077857646,0.0,0.0,0.0
2,2021-07-06 12:11:13.954814,188851,10.519945318190123,-0.9157335497067244,-0.013220897183533548,27.553619776686663,12.046144838161222,-2.035324645283907,0.0,0.0,0.0
2,2021-07-06 12:11:13.962770,188859,10.52063953640643,-0.9150276823199607,-0.012267959765038366,27.55850382022566,12.052426677629764,-1.9859056217879427,0.0,0.0,0.0
2,2021-07-06 12:11:13.971574,188868,10.52129951047538,-0.9143606093134147,-0.011276009274228128,27.5632838450559,12.058306354396622,-1.935962225986361,0.0,0.0,0.0
2,2021-07-06 12:11:13.980153,188876,10.52192433670087,-0.913733350283928,-0.010246521013625642,27.567961866147243,12.063795124532229,-1.8855383673021664,0.0,0.0,0.0
2,2021-07-06 12:11:13.987337,188884,10.522513216225416,-0.9131467944802054,-0.009181180578760325,27.5725399070587,12.068905812119404,-1.8346785053622452,0.0,0.0,0.0
2,2021-07-06 12:11:13.995148,188891,10.523065458368366,-0.9126017048882534,-0.008081887518206899,27.577019968819215,12.073652641272343,-1.7834274899736278,0.0,0.0,0.0
2,2021-07-06 12:11:14.004741,188901,10.523580483816108,-0.9120987207393785,-0.006950759668492583,27.581403997798205,12.078051052340495,-1.7318304117149281,0.0,0.0,0.0
2,2021-07-06 12:11:14.012377,188909,10.52405782749377,-0.9116383583357096,-0.0057901385790376,27.585693853796037,12.082117506641564,-1.6799324630900925,0.0,0.0,0.0
2,2021-07-06 12:11:14.020397,188917,10.524497140982422,-0.9112210099805046,-0.004602596504311521,27.589891278828205,12.085869284156047,-1.6277788094565804,0.0,0.0,0.0
2,2021-07-06 12:11:14.027405,188924,10.524898194297496,-0.9108469410327891,-0.003390945117931877,27.593997866952567,12.08932427827835,-1.575414468049888,0.0,0.0,0.0
2,2021-07-06 12:11:14.034379,188931,10.52526087672241,-0.9105162855954573,-0.0021582454743520893,27.598015035862325,12.092500792070322,-1.5228841929180326,0.0,0.0,0.0
2,2021-07-06 12:11:14.042632,188939,10.525585196480923,-0.9102290416242477,-0.0009078180095569835,27.601944001040756,12.09541734123356,-1.4702323636428356,0.0,0.0,0.0
2,2021-07-06 12:11:14.051032,188947,10.525871279479707,-0.9099850660547241,0.0003567492794555257,27.605785752730885,12.098092468872215,-1.417502876043601,0.0,0.0,0.0
2,2021-07-06 12:11:14.059279,188956,10.526119367763865,-0.9097840702254817,0.0016315964478007326,27.60954103540699,12.100544575742251,-1.3647390331591174,0.0,0.0,0.0
2,2021-07-06 12:11:14.067820,188964,10.526329818371718,-0.9096256159244119,0.0029125922025497134,27.613210329389986,12.10279176753432,-1.3119834347174177,0.0,0.0,0.0
2,2021-07-06 12:11:14.074716,188971,10.526503103098202,-0.9095091127596284,0.004195339553335043,27.616793834511668,12.104851718313347,-1.2592778635743684,0.0,0.0,0.0
2,2021-07-06 12:11:14.082667,188979,10.526639809237338,-0.9094338176052383,0.005475186028952676,27.620291456004132,12.106741547051996,-1.2066631685083957,0.0,0.0,0.0
2,2021-07-06 12:11:14.090344,188987,10.526740640558536,-0.9093988362499826,0.006747238195333884,27.623702793077577,12.108477702657943,-1.1541791437938917,0.0,0.0,0.0
2,2021-07-06 12:11:14.097829,188994,10.526806417185622,-0.9094031267316004,0.008006380512546683,27.62702713080232,12.110075852749091,-1.1018644063422371,0.0,0.0,0.0
2,2021-07-06 12:11:14.107370,189004,10.526838073252016,-0.9094455038652713,0.009247298202006185,27.630263435668663,12.111550773039658,-1.0497562712049309,0.0,0.0,0.0
2,2021-07-06 12:11:14.115543,189012,10.526836651800677,-0.9095246448812426,0.010464502869700089,27.63341035466356,12.11291623658385,-0.9978906271260033,0.0,0.0,0.0
2,2021-07-06 12:11:14.124236,189021,10.5268032969237,-0.9096390961580677,0.01165235921835406,27.63646621722387,12.114184904722036,-0.9463018155000502,0.0,0.0,0.0
2,2021-07-06 12:11:14.132369,189029,10.526739243626098,-0.9097872806405509,0.012805111894595931,27.63942903919925,12.115368224441884,-0.8950225169895798,0.0,0.0,0.0
2,2021-07-06 12:11:14.139769,189036,10.526645806208682,-0.9099675052167726,0.013916912559635572,27.642296528078692,12.116476338337211,-0.8440836491855593,0.0,0.0,0.0
2,2021-07-06 12:11:14.147501,189044,10.52652436591711,-0.9101779675374647,0.014981847819597657,27.645066089281837,12.117518012038,-0.7935142765003268,0.0,0.0,0.0
2,2021-07-06 12:11:14.154878,189051,10.526376358445983,-0.9104167622684193,0.01599396885551414,27.64773483402956,12.118500581554665,-0.7433415316210767,0.0,0.0,0.0
2,2021-07-06 12:11:14.162583,189059,10.526203261793189,-0.9106818871590683,0.016947323590455646,27.650299589578538,12.11942992100025,-0.6935905475965687,0.0,0.0,0.0
2,2021-07-06 12:11:14.170499,189067,10.526006584801705,-0.9109712494913966,0.017835991871257246,27.652756912227492,12.12031042933328,-0.6442844004027967,0.0,0.0,0.0
2,2021-07-06 12:11:14.179037,189075,10.525787856517693,-0.9112826734383404,0.018654123639967678,27.655103102982967,12.121145033488602,-0.5954440621420863,0.0,0.0,0.0
2,2021-07-06 12:11:14.187630,189084,10.525548616377224,-0.9116139085408664,0.019395979631560152,27.657334225489688,12.121935205062668,-0.5470883644240705,0.0,0.0,0.0
2,2021-07-06 12:11:14.195785,189092,10.525290405177428,-0.9119626390458336,0.020055973663438337,27.65944612568172,12.122680987740335,-0.49923397099878775,0.0,0.0,0.0
2,2021-07-06 12:11:14.202879,189099,10.525014756625666,-0.9123264935954274,0.02062871528031698,27.66143445272229,12.123381032686906,-0.45189535933319286,0.0,0.0,0.0
2,2021-07-06 12:11:14.210032,189106,10.524723188969515,-0.9127030548750217,0.021109051701084867,27.663294681369607,12.124032639939884,-0.4050848120606861,0.0,0.0,0.0
2,2021-07-06 12:11:14.217766,189114,10.524417196075982,-0.9130898690938559,0.021492108425875088,27.66502213637257,12.124631805111736,-0.3588124196116284,0.0,0.0,0.0
2,2021-07-06 12:11:14.226765,189123,10.524098237625902,-0.9134844554035351,0.021773327970664957,27.666612019097798,12.125173271738959,-0.31308609425865086,0.0,0.0,0.0
2,2021-07-06 12:11:14.233841,189130,10.52376772861245,-0.9138843155439064,0.02194850598042724,27.66805943562567,12.125650590431205,-0.26791159453179136,0.0,0.0,0.0
2,2021-07-06 12:11:14.243367,189140,10.5234270285615,-0.9142869440524325,0.02201382408033722,27.669359425307775,12.126056186563343,-0.22329255879409393,0.0,0.0,0.0
2,2021-07-06 12:11:14.252149,189148,10.523077430661006,-0.9146898391990932,0.021965879619537696,27.670506989765247,12.1263814383208,-0.1792305474100932,0.0,0.0,0.0
2,2021-07-06 12:11:14.259729,189156,10.522720150705599,-0.9150905145794718,0.021801713151395473,27.671497123309482,12.126616766462197,-0.1357250933605782,0.0,0.0,0.0
2,2021-07-06 12:11:14.268279,189165,10.522356315876783,-0.9154865111610323,0.021518834166925332,27.672324845520738,12.126751736368895,-0.09277376138865259,0.0,0.0,0.0
2,2021-07-06 12:11:14.275316,189172,10.52198695381057,-0.915875409471957,0.021115244615847885,27.672985235581283,12.126775172006127,-0.05037221646776886,0.0,0.0,0.0
2,2021-07-06 12:11:14.282958,189179,10.521612982679597,-0.9162548415528594,0.020589459193169183,27.673473466962527,12.126675280545914,-0.00851430281158252,0.0,0.0,0.0
2,2021-07-06 12:11:14.290586,189187,10.521235202887716,-0.9166225023511315,0.01994052161827691,27.673784840621206,12.126439785763798,0.03280786637891463,0.0,0.0,0.0
2,2021-07-06 12:11:14.298299,189195,10.520854290653006,-0.9169761603888427,0.019168016744244485,27.673914815031033,12.126056068124994,0.07360380978940612,0.0,0.0,0.0
2,2021-07-06 12:11:14.305312,189202,10.520470793479179,-0.91731366769532,0.01827207908299847,27.673859032195022,12.125511309546862,0.11388457116784988,0.0,0.0,0.0
2,2021-07-06 12:11:14.312899,189209,10.52008512731291,-0.9176329691372259,0.017253399244741313,27.673613339823333,12.124792640642509,0.15366260557236783,0.0,0.0,0.0
2,2021-07-06 12:11:14.320394,189217,10.519697575110868,-0.917932111287284,0.016113230199083665,27.673173810458568,12.123887288043663,0.19295165874254683,0.0,0.0,0.0
2,2021-07-06 12:11:14.327977,189224,10.519308286696345,-0.9182092506318517,0.014853394429025295,27.672536758469064,12.122782719635946,0.23176663973206066,0.0,0.0,0.0
2,2021-07-06 12:11:14.336107,189232,10.518917280079318,-0.9184626603467759,0.013476291489228302,27.671698755897992,12.12146678584487,0.2701234871149614,0.0,0.0,0.0
2,2021-07-06 12:11:14.344571,189241,10.518524444597443,-0.918690734777849,0.011984904305013049,27.670656647907222,12.119927855415355,0.30803902912688713,0.0,0.0,0.0
2,2021-07-06 12:11:14.352465,189249,10.518129546198649,-0.9188919915050501,0.010382802142816014,27.669407567658062,12.118154944905212,0.345530838594585,0.0,0.0,0.0
2,2021-07-06 12:11:14.359580,189256,10.517732235006656,-0.9190650716630582,0.008674138573986537,27.66794894966864,12.116137841968897,0.3826170843399335,0.0,0.0,0.0
2,2021-07-06 12:11:14.366932,189263,10.517332055011906,-0.9192087392578754,0.0068636442348342834,27.666278540833144,12.113867222731102,0.4193163814678787,0.0,0.0,0.0
2,2021-07-06 12:11:14.375869,189272,10.516928455344287,-0.9193218798502322,0.004956616298944482,27.664394409057426,12.11133476328263,0.45564764356141874,0.0,0.0,0.0
2,2021-07-06 12:11:14.383195,189280,10.516520802400061,-0.9194034986761108,0.0029589075098533503,27.66229495016341,12.108533244920928,0.4916299402952223,0.0,0.0,0.0
2,2021-07-06 12:11:14.390944,189287,10.516108392315788,-0.9194527180753719,0.0008769164483748135,27.65997889414414,12.105456652284081,0.5272823641530988,0.0,0.0,0.0
2,2021-07-06 12:11:14.399273,189296,10.51569046362648,-0.9194687740332822,-0.0012824210964561278,27.657445311853753,12.10210026325808,0.5626239096353937,0.0,0.0,0.0
2,2021-07-06 12:11:14.406489,189303,10.515266210059833,-0.9194510119134358,-0.0035116408196141135,27.65469362257177,12.098460729678697,0.5976733674124834,0.0,0.0,0.0
2,2021-07-06 12:11:14.414334,189311,10.514834793330806,-0.9193988819639066,-0.00580276037688532,27.65172360189592,12.09453614807725,0.6324492344857894,0.0,0.0,0.0
2,2021-07-06 12:11:14.423848,189320,10.514395355731521,-0.9193119353372198,-0.00814729364709922,27.64853538877255,12.090326119662846,0.6669696401347116,0.0,0.0,0.0
2,2021-07-06 12:11:14.432055,189328,10.513947032352426,-0.9191898208986586,-0.010536270427800424,27.645129490428573,12.085831798487254,0.7012522867305576,0.0,0.0,0.0
2,2021-07-06 12:11:14.439388,189336,10.513488962871332,-0.9190322825118781,-0.012960262483583567,27.641506784303093,12.081055926697347,0.7353144045290464,0.0,0.0,0.0
2,2021-07-06 12:11:14.449372,189346,10.513020302984273,-0.9188391562359843,-0.015409416274363492,27.637668516616284,12.076002856196967,0.7691727198531616,0.0,0.0,0.0
2,2021-07-06 12:11:14.457371,189354,10.51254023570788,-0.9186103668247315,-0.01787349223113062,27.633616297831615,12.070678556725634,0.8028434358896694,0.0,0.0,0.0
2,2021-07-06 12:11:14.464786,189361,10.512047982782272,-0.9183459231230358,-0.020341909853659107,27.629352095649136,12.065090610936648,0.8363422249535429,0.0,0.0,0.0
2,2021-07-06 12:11:14.471892,189368,10.511542816145592,-0.9180459125556248,-0.02280379720106044,27.624878226122657,12.059248197348182,0.8696842314647943,0.0,0.0,0.0
2,2021-07-06 12:11:14.480957,189377,10.511024069170197,-0.9177104953965936,-0.025248043122626716,27.62019734321193,12.053162061953214,0.9028840858264046,0.0,0.0,0.0
2,2021-07-06 12:11:14.488841,189385,10.510491147234953,-0.9173398993226833,-0.027663351332135298,27.615312426830844,12.046844478744557,0.9359559298948449,0.0,0.0,0.0
2,2021-07-06 12:11:14.497822,189394,10.509943537156715,-0.9169344142363942,-0.030038296710388292,27.61022676936089,12.040309198684712,0.9689134543458482,0.0,0.0,0.0
2,2021-07-06 12:11:14.506574,189403,10.509380815026194,-0.9164943873658196,-0.03236138522696185,27.60494396070481,12.033571386082386,1.0017699472024333,0.0,0.0,0.0
2,2021-07-06 12:11:14.515661,189412,10.508802652203977,-0.9160202193120626,-0.0346211191450679,27.59946787213224,12.026647541189005,1.0345383515836317,0.0,0.0,0.0
2,2021-07-06 12:11:14.523364,189420,10.508208819461302,-0.9155123619656037,-0.03680606809496236,27.593802639046494,12.019555408581448,1.0672313297300275,0.0,0.0,0.0
2,2021-07-06 12:11:14.530624,189427,10.50759918927681,-0.9149713183793612,-0.03890494421267243,27.58795264223621,12.01231387255147,1.0998613299136335,0.0,0.0,0.0
2,2021-07-06 12:11:14.538241,189435,10.50697373625363,-0.914397643742319,-0.04090667776498481,27.581922486753257,12.004942841871964,1.1324406532765288,0.0,0.0,0.0
2,2021-07-06 12:11:14.545461,189442,10.506332535781029,-0.9137919466414638,-0.042800489837284426,27.57571697798089,11.997463125905071,1.1649815184674106,0.0,0.0,0.0
2,2021-07-06 12:11:14.554310,189451,10.505675761426877,-0.9131548904684432,-0.044575959493425674,27.569341095479587,11.98989630298093,1.1974961221072062,0.0,0.0,0.0
2,2021-07-06 12:11:14.562972,189459,10.505003681734683,-0.9124871952342186,-0.04622308343353567,27.5627999658425,11.982264581423088,1.2299966930169708,0.0,0.0,0.0
2,2021-07-06 12:11:14.570926,189467,10.504316656826772,-0.9117896400024699,-0.04773232746934188,27.55609883574228,11.974590653518673,1.2624955388024441,0.0,0.0,0.0
2,2021-07-06 12:11:14.578407,189475,10.50361513471803,-0.9110630659438607,-0.049094671107306295,27.549243046198086,11.966897542868356,1.295005084241105,0.0,0.0,0.0
2,2021-07-06 12:11:14.587483,189484,10.502899646967913,-0.9103083798965301,-0.05030164762082767,27.542238009002716,11.959208445626166,1.3275379013906414,0.0,0.0,0.0
2,2021-07-06 12:11:14.596127,189492,10.502170803361867,-0.9095265582979679,-0.05134538148522657,27.535089185797386,11.951546566033821,1.360106731787897,0.0,0.0,0.0
2,2021-07-06 12:11:14.603265,189500,10.501429285523786,-0.9087186512781367,-0.05221862394590498,27.527802069466585,11.943934947056091,1.3927245008947409,0.0,0.0,0.0
2,2021-07-06 12:11:14.610769,189507,10.500675839534901,-0.9078857865182226,-0.05291478684409253,27.520382166773636,11.936396298179707,1.425404323503249,0.0,0.0,0.0
2,2021-07-06 12:11:14.619510,189516,10.499911267716415,-0.9070291723628684,-0.05342797453068129,27.51283498091183,11.92895282334855,1.4581594977879402,0.0,0.0,0.0
2,2021-07-06 12:11:14.627073,189523,10.499136419778305,-0.906150099764027,-0.053753013001376845,27.50516599319035,11.921626051813323,1.4910034864857338,0.0,0.0,0.0
2,2021-07-06 12:11:14.634703,189531,10.498352183632566,-0.905249942812197,-0.05388547427205968,27.497380644092942,11.914436674315128,1.5239498850704534,0.0,0.0,0.0
2,2021-07-06 12:11:14.641882,189538,10.49755947628331,-0.9043301577701304,-0.053821693979110026,27.489484314650287,11.907404386791184,1.5570123773857731,0.0,0.0,0.0
2,2021-07-06 12:11:14.649347,189546,10.496759235228495,-0.9033922806927007,-0.05355878208717185,27.481482309075353,11.900547742929241,1.59020467934027,0.0,0.0,0.0
2,2021-07-06 12:11:14.656152,189552,10.49595241069719,-0.902437923871517,-0.05309462851633164,27.47337983920887,11.893884015744469,1.62354047164581,0.0,0.0,0.0
2,2021-07-06 12:11:14.663700,189560,10.49513995881603,-0.90146877152542,-0.05242790553441114,27.465182010920284,11.887429067848812,1.6570333234170536,0.0,0.0,0.0
2,2021-07-06 12:11:14.670444,189567,10.494322835531449,-0.9004865754509019,-0.05155806769474887,27.45689381239762,11.881197230180465,1.690696609508423,0.0,0.0,0.0
2,2021-07-06 12:11:14.677704,189574,10.493501990994503,-0.8994931514419471,-0.050485349492253404,27.448520104150887,11.875201189178368,1.7245434249950542,0.0,0.0,0.0
2,2021-07-06 12:11:14.684742,189581,10.492678364261685,-0.8984903767228274,-0.049210761108675394,27.440065610318573,11.869451882762668,1.758586499739984,0.0,0.0,0.0
2,2021-07-06 12:11:14.691702,189588,10.491852878454443,-0.8974801876442912,-0.04773608322367435,27.431534910505874,11.863958406135723,1.7928381150761474,0.0,0.0,0.0
2,2021-07-06 12:11:14.699537,189596,10.491026436676048,-0.8964645763921488,-0.04606386206182211,27.42293243118046,11.858727928851204,1.827310024098017,0.0,0.0,0.0
2,2021-07-06 12:11:14.707306,189604,10.490199918883237,-0.895445585984997,-0.04419740480308437,27.414262435749315,11.853765624479786,1.8620133769987146,0.0,0.0,0.0
2,2021-07-06 12:11:14.714887,189611,10.489374179657192,-0.8944253038434387,-0.04214077368177887,27.405529012688238,11.849074614018049,1.8969586528222646,0.0,0.0,0.0
2,2021-07-06 12:11:14.723358,189620,10.4885500464737,-0.893405854649253,-0.039898776377177814,27.396736061407168,11.844655924163913,1.9321555986192585,0.0,0.0,0.0
2,2021-07-06 12:11:14.732112,189628,10.487728317663349,-0.8923893927763412,-0.03747695148200444,27.387887275909378,11.840508461337674,1.967613176487114,0.0,0.0,0.0
2,2021-07-06 12:11:14.739389,189636,10.486909759091835,-0.8913780940239129,-0.034881549370958324,27.378986126567316,11.836629001815044,2.0033395187145224,0.0,0.0,0.0
2,2021-07-06 12:11:14.749326,189646,10.48609509898116,-0.8903741464743166,-0.03211950910051462,27.37003584049218,11.83301219776299,2.039341890988697,0.0,0.0,0.0
2,2021-07-06 12:11:14.758470,189655,10.48528502094515,-0.8893797408309988,-0.02919843152521864,27.361039381326197,11.829650598503843,2.07562666273958,0.0,0.0,0.0
2,2021-07-06 12:11:14.767078,189663,10.484480155611667,-0.8883970607531848,-0.026126548873707762,27.351999429796894,11.826534686468097,2.1121992825268516,0.0,0.0,0.0
2,2021-07-06 12:11:14.775745,189672,10.483681071066174,-0.8874282732311493,-0.022912691681350277,27.342918366567027,11.823652928173434,2.149064255855429,0.0,0.0,0.0
2,2021-07-06 12:11:14.783282,189680,10.482888262425226,-0.8864755186744221,-0.019566253980351375,27.333798258389667,11.820991841175514,2.1862251230910723,0.0,0.0,0.0
2,2021-07-06 12:11:14.792185,189689,10.482102141482844,-0.8855409006937928,-0.016097156343155578,27.324640847437777,11.81853607746933,2.2236844358921344,0.0,0.0,0.0
2,2021-07-06 12:11:14.800456,189697,10.48132302782345,-0.8846264760320095,-0.012515805189541306,27.315447542742945,11.81626852294165,2.261443731626219,0.0,0.0,0.0
2,2021-07-06 12:11:14.808712,189705,10.480551142289961,-0.8837342450990556,-0.008833047331982122,27.30621941263614,11.814170411935692,2.299503506443568,0.0,0.0,0.0
2,2021-07-06 12:11:14.816102,189712,10.47978660268965,-0.8828661432841761,-0.00506012037919366,27.296957177602238,11.812221455543607,2.33786318854253,0.0,0.0,0.0
2,2021-07-06 12:11:14.824046,189720,10.479029421115346,-0.882024033080252,-0.0012086002518926133,27.287661203392357,11.810399981621966,2.3765211131809183,0.0,0.0,0.0
2,2021-07-06 12:11:14.832001,189728,10.478279502489736,-0.8812096971034232,0.0027096540036807234,27.27833149441757,11.808683084030235,2.4154745003578193,0.0,0.0,0.0
2,2021-07-06 12:11:14.841645,189738,10.477536644327014,-0.8804248321245041,0.0066825590141813065,27.268967687469054,11.807046778672516,2.4547194356586104,0.0,0.0,0.0
2,2021-07-06 12:11:14.849201,189746,10.476800537752469,-0.8796710441154848,0.010697869625690335,27.259569045847268,11.805466164601985,2.4942508548137807,0.0,0.0,0.0
2,2021-07-06 12:11:14.856675,189753,10.47607076961432,-0.8789498441231745,0.014743243227886362,27.25013445424903,11.803915589109543,2.534062532485011,0.0,0.0,0.0
2,2021-07-06 12:11:14.863900,189760,10.47534682540762,-0.8782626447379139,0.01880630308748675,27.240662415233423,11.802368815841533,2.574147075493941,0.0,0.0,0.0
2,2021-07-06 12:11:14.870985,189767,10.474628092826961,-0.8776107571109567,0.02287469963302703,27.231151048464206,11.800799194781494,2.6144959206792597,0.0,0.0,0.0
2,2021-07-06 12:11:14.878318,189775,10.47391386591677,-0.8769953886369098,0.026936170690700586,27.22159809386906,11.799179832901281,2.6550993379246313,0.0,0.0,0.0
2,2021-07-06 12:11:14.885688,189782,10.473203349857226,-0.8764176412589286,0.030978601740752152,27.212000919340113,11.79748376460288,2.695946439035235,0.0,0.0,0.0
2,2021-07-06 12:11:14.893280,189790,10.472495666437975,-0.8758785099568582,0.034990085922714194,27.20235653305283,11.795684121450106,2.7370251926750875,0.0,0.0,0.0
2,2021-07-06 12:11:14.900981,189797,10.471789860299651,-0.8753788807832195,0.03895898269778101,27.192661600209092,11.793754300765219,2.778322445205908,0.0,0.0,0.0
2,2021-07-06 12:11:14.908281,189805,10.471084906133697,-0.8749195281220481,0.04287397448294893,27.182912463897104,11.791668132155307,2.8198239476229268,0.0,0.0,0.0
2,2021-07-06 12:11:14.915728,189812,10.470379717187422,-0.8745011114222159,0.046724121366336274,27.173105169686547,11.789400039936767,2.861514389168503,0.0,0.0,0.0
2,2021-07-06 12:11:14.923018,189819,10.469673155283477,-0.8741241719578993,0.05049891396469983,27.163235493534994,11.786925198391373,2.903377437862392,0.0,0.0,0.0
2,2021-07-06 12:11:14.930634,189827,10.46896404196561,-0.8737891300013633,0.05418832342777498,27.153298972522816,11.784219676525105,2.9453957875444274,0.0,0.0,0.0
2,2021-07-06 12:11:14.939852,189836,10.468251169899972,-0.8734962824879505,0.057782846811721876,27.143290937819614,11.781260569700553,2.9875512109422036,0.0,0.0,0.0
2,2021-07-06 12:11:14.947473,189844,10.467533313868062,-0.8732458011408696,0.06127354654298611,27.133206549044502,11.778026117159829,3.0298246187608626,0.0,0.0,0.0
2,2021-07-06 12:11:14.954374,189851,10.466809241261513,-0.8730377310489227,0.06465208375546187,27.12304082887813,11.774495806486582,3.072196124951725,0.0,0.0,0.0
2,2021-07-06 12:11:14.961427,189858,10.466077722241563,-0.8728719896010275,0.06791074562141936,27.112788696898544,11.770650467145964,3.1146451177719703,0.0,0.0,0.0
2,2021-07-06 12:11:14.968507,189865,10.465337539518863,-0.8727483654175474,0.07104246627290003,27.102445002374385,11.766472354797957,3.1571503356860857,0.0,0.0,0.0
2,2021-07-06 12:11:14.975714,189872,10.464587497442418,-0.8726665167878265,0.07404084059662934,27.09200455643899,11.761945227034428,3.199689947284306,0.0,0.0,0.0
2,2021-07-06 12:11:14.983179,189880,10.463826430040005,-0.8726259694704767,0.07690013116254064,27.081462164063723,11.757054410538961,3.2422416349114456,0.0,0.0,0.0
2,2021-07-06 12:11:14.991266,189888,10.463053207716257,-0.8726261143724918,0.07961527045665309,27.070812655927153,11.75178685945856,3.2847826818056474,0.0,0.0,0.0
2,2021-07-06 12:11:14.998962,189895,10.462266742364516,-0.8726662059749707,0.08218186155152447,27.06005092011288,11.746131204794327,3.32729006247758,0.0,0.0,0.0
2,2021-07-06 12:11:15.007505,189904,10.461465990735178,-0.8727453620817632,0.0845961790935705,27.04917193357817,11.740077794982914,3.3697405365115953,0.0,0.0,0.0
2,2021-07-06 12:11:15.015188,189912,10.460649956077177,-0.8728625649001988,0.0868551701471651,27.03817079343969,11.733618728544135,3.4121107463172233,0.0,0.0,0.0
2,2021-07-06 12:11:15.024736,189921,10.45981768839004,-0.8730166631898799,0.08895645321297337,27.027042748036603,11.726747880120193,3.4543773185674125,0.0,0.0,0.0
2,2021-07-06 12:11:15.032149,189928,10.458968284064278,-0.8732063753465554,0.09089831426431182,27.01578322721864,11.719460920954777,3.496516967555595,0.0,0.0,0.0
2,2021-07-06 12:11:15.040159,189936,10.458100885898304,-0.873430293501748,0.09267969967513286,27.004387870785706,11.711755334203447,3.5385065982326784,0.0,0.0,0.0
2,2021-07-06 12:11:15.047123,189943,10.457214684203294,-0.8736868887670212,0.09430020633850904,26.99285255395838,11.70363042496747,3.5803234081399884,0.0,0.0,0.0
2,2021-07-06 12:11:15.054216,189951,10.456308919214774,-0.8739745176666731,0.09576006926469387,26.981173409034792,11.695087324514846,3.6219449892078326,0.0,0.0,0.0
2,2021-07-06 12:11:15.061330,189958,10.455382884614906,-0.8742914296439614,0.097060147144011,26.969346842736606,11.686128987139195,3.6633494299851828,0.0,0.0,0.0
2,2021-07-06 12:11:15.069686,189966,10.454435931628343,-0.874635775312055,0.09820190686731989,26.95736954912514,11.676760176430484,3.704515416375047,0.0,0.0,0.0
2,2021-07-06 12:11:15.077195,189974,10.453467473015388,-0.8750056150263444,0.0991874082112831,26.945238518204764,11.666987436876543,3.7454223273662084,0.0,0.0,0.0
2,2021-07-06 12:11:15.084768,189981,10.452476986560713,-0.8753989275632711,0.10001928922193787,26.932951040361047,11.656819047992062,3.7860503233839946,0.0,0.0,0.0
2,2021-07-06 12:11:15.091785,189988,10.451464018150833,-0.8758136190646335,0.10070075162531915,26.920504706843044,11.646264960492594,3.8263804269296964,0.0,0.0,0.0
2,2021-07-06 12:11:15.099146,189995,10.450428184808034,-0.8762475325916563,0.10123554494784649,26.907897406560604,11.635336715412244,3.866394596197093,0.0,0.0,0.0
2,2021-07-06 12:11:15.106627,190003,10.44936917796425,-0.8766984584507902,0.1016279484638687,26.895127319339633,11.624047347339555,3.9060757924400686,0.0,0.0,0.0
2,2021-07-06 12:11:15.113826,190010,10.448286767027346,-0.8771641450824188,0.10188275097592284,26.882192905720924,11.61241127321475,3.9454080413651487,0.0,0.0,0.0
2,2021-07-06 12:11:15.121941,190018,10.447180803061022,-0.8776423100981011,0.10200522888210924,26.869092893773242,11.60044416862179,3.9843764879739565,0.0,0.0,0.0
2,2021-07-06 12:11:15.129628,190026,10.44605122216842,-0.878130651149497,0.10200112282971296,26.855826264029123,11.588162833605114,4.022967443746679,0.0,0.0,0.0
2,2021-07-06 12:11:15.136615,190033,10.444898048076126,-0.8786268565243567,0.101876612998496,26.842392233862785,11.575585049585095,4.06116842537583,0.0,0.0,0.0
2,2021-07-06 12:11:15.144041,190040,10.4437213936436,-0.8791286155035419,0.10163829318630657,26.828790242145516,11.562729428491476,4.0989681853035815,0.0,0.0,0.0
2,2021-07-06 12:11:15.152257,190049,10.442521461435181,-0.8796336285779847,0.1012931443288885,26.81501993440323,11.549615255254201,4.136356735327484,0.0,0.0,0.0
2,2021-07-06 12:11:15.160513,190057,10.441298543733911,-0.8801396176066046,0.1008485083118792,26.801081148382558,11.536262324978193,4.173325364965656,0.0,0.0,0.0
2,2021-07-06 12:11:15.168091,190064,10.440053022352018,-0.8806443357668476,0.1003120625001746,26.78697389970825,11.522690776190544,4.209866656176739,0.0,0.0,0.0
2,2021-07-06 12:11:15.175955,190072,10.43878536848117,-0.8811455767638164,0.09969179459285246,26.772698367154174,11.50892092178543,4.245974495578105,0.0,0.0,0.0
2,2021-07-06 12:11:15.184015,190080,10.437496142640379,-0.8816411826721501,0.09899597683340033,26.75825487723729,11.494973079277298,4.281644084727025,0.0,0.0,0.0
2,2021-07-06 12:11:15.192146,190088,10.436185994438002,-0.882129050234935,0.0982331385123536,26.743643888331274,11.480867400948437,4.316871948703061,0.0,0.0,0.0
2,2021-07-06 12:11:15.200337,190097,10.434855661596412,-0.8826071359582494,0.09741203590491221,26.72886597477039,11.466623703343094,4.351655943361279,0.0,0.0,0.0
2,2021-07-06 12:11:15.207586,190104,10.433505967732508,-0.8830734604314677,0.09654161901038982,26.713921811245978,11.452261295944272,4.385995261993857,0.0,0.0,0.0
2,2021-07-06 12:11:15.214533,190111,10.432137818601953,-0.8835261121467921,0.09563099464852992,26.698812157597985,11.437798810794881,4.419890442181584,0.0,0.0,0.0
2,2021-07-06 12:11:15.223378,190120,10.430752196743551,-0.8839632510219604,0.09468938603646865,26.683537844133095,11.423254036909572,4.453343372997021,0.0,0.0,0.0
2,2021-07-06 12:11:15.231190,190128,10.429350154716293,-0.8843831118615233,0.09372609009801207,26.668099757614613,11.408643764398404,4.486357301832757,0.0,0.0,0.0
2,2021-07-06 12:11:15.240374,190137,10.427932807313512,-0.8847840079774543,0.09275043446868712,26.6524988278457,11.393983642751262,4.518936839784921,0.0,0.0,0.0
2,2021-07-06 12:11:15.248330,190145,10.426501323229383,-0.885164335028122,0.09177173551711146,26.636736014322945,11.379288055949544,4.55108796473186,0.0,0.0,0.0
2,2021-07-06 12:11:15.255741,190152,10.425056916757692,-0.8855225749130768,0.0907992573603546,26.620812292063846,11.36457001523496,4.58281802111822,0.0,0.0,0.0
2,2021-07-06 12:11:15.265598,190162,10.423600840055931,-0.8858572995829112,0.08984217107183322,26.604728635978237,11.349841069335355,4.614135714954006,0.0,0.0,0.0
2,2021-07-06 12:11:15.274629,190171,10.4221343760933,-0.8861671749942994,0.08890951333503759,26.588486004115214,11.335111231360598,4.645051102575051,0.0,0.0,0.0
2,2021-07-06 12:11:15.283846,190180,10.42065883194088,-0.8864509657100075,0.08801014413100451,26.572085320841854,11.320388921201085,4.675575572427894,0.0,0.0,0.0
2,2021-07-06 12:11:15.292707,190189,10.419175531923678,-0.8867075402976731,0.08715270320864708,26.555527460960633,11.305680922339544,4.705721819748693,0.0,0.0,0.0
2,2021-07-06 12:11:15.300668,190197,10.41768581021333,-0.8869358769445939,0.08634556515265009,26.538813235604668,11.290992352484428,4.73550381394149,0.0,0.0,0.0
2,2021-07-06 12:11:15.308008,190204,10.416191002554585,-0.8871350684285211,0.08559679334643752,26.521943380819216,11.276326648183902,4.764936758160676,0.0,0.0,0.0
2,2021-07-06 12:11:15.317342,190214,10.414692437052562,-0.8873043260835246,0.08491409411469618,26.504918549609535,11.261685564480757,4.794037040768843,0.0,0.0,0.0
2,2021-07-06 12:11:15.324876,190221,10.41319142423227,-0.8874429828944078,0.08430477280004578,26.48773930783081,11.247069191325338,4.822822178768991,0.0,0.0,0.0
2,2021-07-06 12:11:15.332419,190229,10.41168924674706,-0.887550495676788,0.0837756927445043,26.47040613390698,11.232475988472723,4.851310753501929,0.0,0.0,0.0
2,2021-07-06 12:11:15.339943,190236,10.410187149126125,-0.8876264459489791,0.08333323704242447,26.452919422008204,11.217902839920535,4.879522339045092,0.0,0.0,0.0
2,2021-07-06 12:11:15.348477,190245,10.408686327951147,-0.8876705393296286,0.0829832726384702,26.435279487833245,11.203345127681269,4.907477424124578,0.0,0.0,0.0
2,2021-07-06 12:11:15.356633,190253,10.407187922957663,-0.8876826039317082,0.08273111670625932,26.417486575659648,11.188796823175736,4.935197328681525,0.0,0.0,0.0
2,2021-07-06 12:11:15.365627,190262,10.405693009602812,-0.8876625884512129,0.08258150572937106,26.399540865354535,11.174250593508509,4.962704116177419,0.0,0.0,0.0
2,2021-07-06 12:11:15.373290,190270,10.404202593420518,-0.8876105601600092,0.0825385681562205,26.381442478732545,11.159697919713372,4.990020502414883,0.0,0.0,0.0
2,2021-07-06 12:11:15.380188,190277,10.402717606168306,-0.8875267024636185,0.08260580162992809,26.363191485340867,11.145129224483822,5.017169761485964,0.0,0.0,0.0
2,2021-07-06 12:11:15.387500,190284,10.401238903609299,-0.8874113117516653,0.08278605527406423,26.34478790809746,11.13053400753569,5.044175629486294,0.0,0.0,0.0
2,2021-07-06 12:11:15.395727,190292,10.399767264718072,-0.8872647937261378,0.08308151664260024,26.326231729601858,11.115900987253976,5.071062206574439,0.0,0.0,0.0
2,2021-07-06 12:11:15.403494,190300,10.398303391984491,-0.8870876595284807,0.08349370244551,26.307522900205175,11.10121824751203,5.097853857945417,0.0,0.0,0.0
2,2021-07-06 12:11:15.410422,190307,10.396847912310845,-0.8868805215895126,0.08402345230576286,26.288661348481963,11.086473388644228,5.124575114673538,0.0,0.0,0.0
2,2021-07-06 12:11:15.417529,190314,10.395401377929058,-0.8866440887797046,0.08467092522717473,26.269646993891932,11.071653681708977,5.151250575783088,0.0,0.0,0.0
2,2021-07-06 12:11:15.425630,190322,10.393964266926105,-0.8863791607800163,0.08543559884893283,26.250479760817893,11.056746225649713,5.177904812504598,0.0,0.0,0.0
2,2021-07-06 12:11:15.434831,190331,10.39253698321898,-0.886086622432338,0.08631627190406488,26.231159592911784,11.041738107747598,5.2045622745168645,0.0,0.0,0.0
2,2021-07-06 12:11:15.442334,190339,10.391119855977387,-0.8857674392402418,0.08731107050781028,26.21168646666349,11.026616568126263,5.231247197245343,0.0,0.0,0.0
2,2021-07-06 12:11:15.451222,190348,10.389713138584774,-0.8854226545550236,0.08841745898230219,26.19206040343729,11.011369168313138,5.257983509633775,0.0,0.0,0.0
2,2021-07-06 12:11:15.458465,190355,10.388317007389807,-0.885053387785891,0.08963225599976941,26.172281479882784,10.995983962394382,5.284794742406433,0.0,0.0,0.0
2,2021-07-06 12:11:15.466039,190362,10.38693156075368,-0.8846608323283607,0.09095165662743458,26.152349837131215,10.980449667990134,5.3117039369980255,0.0,0.0,0.0
2,2021-07-06 12:11:15.473887,190370,10.385556819133752,-0.8842462522249265,0.0923712601361327,26.13226568910744,10.96475583350286,5.338733555378823,0.0,0.0,0.0
2,2021-07-06 12:11:15.483478,190380,10.38419272693535,-0.883810977222903,0.093886102782007,26.11202932986785,10.948892998067313,5.3659053913626495,0.0,0.0,0.0
2,2021-07-06 12:11:15.491675,190388,10.382839156450745,-0.8833563962604258,0.09549069477706072,26.09164113970691,10.93285284133239,5.3932404847417805,0.0,0.0,0.0
2,2021-07-06 12:11:15.499735,190396,10.381495913575362,-0.8828839495388686,0.09717906098641947,26.071101590065926,10.916628320985247,5.420759040461173,0.0,0.0,0.0
2,2021-07-06 12:11:15.507484,190404,10.380162744509457,-0.8823951194535182,0.09894478503336547,26.05041124754467,10.900213796391606,5.44848035529015,0.0,0.0,0.0
2,2021-07-06 12:11:15.515867,190412,10.378839342484085,-0.8818914207771882,0.10078105644835068,26.0295707771255,10.883605137157728,5.476422753653998,0.0,0.0,0.0
2,2021-07-06 12:11:15.522948,190419,10.377525353730078,-0.881374390545486,0.10268072030645904,26.008580944465283,10.86679981592944,5.50460353285371,0.0,0.0,0.0
2,2021-07-06 12:11:15.531961,190428,10.376220382373445,-0.8808455780363128,0.10463632848661379,25.987442617235605,10.849796985095415,5.533038916595391,0.0,0.0,0.0
2,2021-07-06 12:11:15.540534,190437,10.374923994368604,-0.8803065351204077,0.10664019155280091,25.966156765664074,10.832597537121025,5.561744015314234,0.0,0.0,0.0
2,2021-07-06 12:11:15.548646,190445,10.373635720742268,-0.8797588071900182,0.10868443046751183,25.944724462420325,10.815204148108633,5.590732792187529,0.0,0.0,0.0
2,2021-07-06 12:11:15.555834,190452,10.372355060439695,-0.8792039248904298,0.11076102765323638,25.923146882099665,10.797621304160113,5.6200180340154,0.0,0.0,0.0
2,2021-07-06 12:11:15.562819,190459,10.371081482996688,-0.8786433968784536,0.11286187726419944,25.90142530058774,10.779855310460851,5.649611326006564,0.0,0.0,0.0
2,2021-07-06 12:11:15.570185,190467,10.369814431026802,-0.8780787037119967,0.1149788350687174,25.87956109405129,10.761914283553429,5.679523029650194,0.0,0.0,0.0
2,2021-07-06 12:11:15.577519,190474,10.368553322306921,-0.8775112928273845,0.11710376868793762,25.857555736619812,10.743808127431368,5.709762263434062,0.0,0.0,0.0
2,2021-07-06 12:11:15.584889,190481,10.367297551359709,-0.8769425745148226,0.11922860850324897,25.83541079585339,10.725548493519167,5.7403368864645,0.0,0.0,0.0
2,2021-07-06 12:11:15.593598,190490,10.366046490785628,-0.8763739188296858,0.12134539857955368,25.813127925786368,10.707148723788476,5.771253484676252,0.0,0.0,0.0
2,2021-07-06 12:11:15.600820,190497,10.364799492813605,-0.8758066533633732,0.12344634636144422,25.790708857833195,10.688623775870992,5.802517358984966,0.0,0.0,0.0
2,2021-07-06 12:11:15.608162,190504,10.363555891461601,-0.8752420616182199,0.12552386999547827,25.76815538980272,10.669990129256258,5.834132515016394,0.0,0.0,0.0
2,2021-07-06 12:11:15.615717,190512,10.362315005524044,-0.8746813814507298,0.1275706423968167,25.74546937321915,10.651265672254265,5.8661016544069735,0.0,0.0,0.0
2,2021-07-06 12:11:15.623976,190520,10.361076142465437,-0.8741258031163807,0.12957963140645432,25.722652699257985,10.632469569869127,5.898426167810376,0.0,0.0,0.0
2,2021-07-06 12:11:15.631897,190528,10.359838603143457,-0.873576467087983,0.1315441358233881,25.699707283446863,10.61362211273916,5.931106130137418,0.0,0.0,0.0
2,2021-07-06 12:11:15.640134,190536,10.358601687133346,-0.8730344623756775,0.1334578175108412,25.676635048886077,10.594744547024684,5.964140299155108,0.0,0.0,0.0
2,2021-07-06 12:11:15.648404,190545,10.357364698310697,-0.8725008258702397,0.13531472965888058,25.65343790769593,10.575858885041441,5.997526118789955,0.0,0.0,0.0
2,2021-07-06 12:11:15.656999,190553,10.35612695024404,-0.8719765425931857,0.13710934077023412,25.630117740943096,10.556987696947882,6.031259728052256,0.0,0.0,0.0
2,2021-07-06 12:11:15.665315,190562,10.354887771017678,-0.8714625464849536,0.13883655372696094,25.60667637788279,10.538153885056555,6.065335975453489,0.0,0.0,0.0
2,2021-07-06 12:11:15.673431,190570,10.35364650747742,-0.8709597216983043,0.14049171970880092,25.58311557533792,10.519380443871773,6.099748437538853,0.0,0.0,0.0
2,2021-07-06 12:11:15.682308,190579,10.35240252921345,-0.8704689047000245,0.14207064723843796,25.55943699749957,10.500690209556982,6.134489439712311,0.0,0.0,0.0
2,2021-07-06 12:11:15.689688,190586,10.351155232456659,-0.869990887231976,0.1435696066476691,25.535642195912242,10.4821056019846,6.1695500782239625,0.0,0.0,0.0
2,2021-07-06 12:11:15.696611,190593,10.34990404362347,-0.8695264195630344,0.1449853299839121,25.511732589313116,10.463648362414231,6.204920242952779,0.0,0.0,0.0
2,2021-07-06 12:11:15.703634,190600,10.348648421945347,-0.8690762133493548,0.14631500644048512,25.48770944334266,10.445339291232626,6.240588640914382,0.0,0.0,0.0
2,2021-07-06 12:11:15.711075,190607,10.347387860623552,-0.8686409441424398,0.14755627395235404,25.46357385055543,10.427197991956652,6.276542820877619,0.0,0.0,0.0
2,2021-07-06 12:11:15.718616,190615,10.346121886170058,-0.8682212542606267,0.14870720809758123,25.43932671124774,10.409242627953265,6.312769200203658,0.0,0.0,0.0
2,2021-07-06 12:11:15.726513,190623,10.34485005605478,-0.8678177564418853,0.14976630957678472,25.414968715611572,10.391489697036215,6.3492530955135615,0.0,0.0,0.0
2,2021-07-06 12:11:15.733836,190630,10.343571955422345,-0.8674310377549725,0.15073249163821553,25.390500328096604,10.373953828153669,6.385978758902678,0.0,0.0,0.0
2,2021-07-06 12:11:15.742062,190638,10.342287194022644,-0.8670616627094605,0.15160506882424835,25.3659217751238,10.356647603878972,6.422929421263147,0.0,0.0,0.0
2,2021-07-06 12:11:15.749334,190646,10.34099540439342,-0.8667101747955641,0.15238374787373818,25.34123303673419,10.339581410572826,6.460087343564897,0.0,0.0,0.0
2,2021-07-06 12:11:15.757456,190654,10.339696242038626,-0.8663770963059183,0.15306862073446836,25.31643384194399,10.322763315199584,6.497433875538606,0.0,0.0,0.0
2,2021-07-06 12:11:15.766328,190663,10.338389387794445,-0.8660629266370675,0.15366015910762088,25.291523667333465,10.306198965622153,6.53494952011204,0.0,0.0,0.0
2,2021-07-06 12:11:15.774229,190671,10.337074551545118,-0.8657681392557507,0.15415920995416438,25.266501738532316,10.28989151024316,6.57261400221668,0.0,0.0,0.0
2,2021-07-06 12:11:15.781362,190678,10.335751475682796,-0.8654931774197249,0.1545669915795927,25.24136703430487,10.273841533112165,6.610406341691118,0.0,0.0,0.0
2,2021-07-06 12:11:15.788390,190685,10.334419936957971,-0.8652384488129443,0.1548850898619225,25.21611829301055,10.258047002450983,6.648304930689478,0.0,0.0,0.0
2,2021-07-06 12:11:15.795974,190692,10.333079746147721,-0.86500431946743,0.15511545382962083,25.190754021563734,10.242503233416455,6.686287615727926,0.0,0.0,0.0
2,2021-07-06 12:11:15.802982,190699,10.331730745565856,-0.8647911073683509,0.15526038951580526,25.16527250704942,10.22720286842391,6.724331783799259,0.0,0.0,0.0
2,2021-07-06 12:11:15.809949,190706,10.330372804815408,-0.8645990757955411,0.15532255114690638,25.13967183026755,10.212135879626167,6.762414451691934,0.0,0.0,0.0
2,2021-07-06 12:11:15.817878,190714,10.329005815357906,-0.8644284261940847,0.1553049291672949,25.11394987952357,10.197289597889608,6.800512357971018,0.0,0.0,0.0
2,2021-07-06 12:11:15.826381,190723,10.327629684381542,-0.8642792908502581,0.15521083523713305,25.08810436321284,10.182648771202043,6.838602057319279,0.0,0.0,0.0
2,2021-07-06 12:11:15.834630,190731,10.326244328284263,-0.8641517267391865,0.15504388508651645,25.06213282092367,10.168195654165823,6.876660016480888,0.0,0.0,0.0
2,2021-07-06 12:11:15.842321,190739,10.324849666018377,-0.8640457124401917,0.1548079804428881,25.036032633558563,10.153910129524364,6.914662710624531,0.0,0.0,0.0
2,2021-07-06 12:11:15.849903,190746,10.323445612556464,-0.8639611490753718,0.15450729068541225,25.00980103284692,10.139769861600675,6.952586719321425,0.0,0.0,0.0
2,2021-07-06 12:11:15.858469,190755,10.322032072834352,-0.8638978645239216,0.15414623386364174,24.98343511043314,10.125750479784326,6.990408821671401,0.0,0.0,0.0
2,2021-07-06 12:11:15.867544,190764,10.320608936641188,-0.8638556193620803,0.1537294562328176,24.956931827071486,10.11182578839679,7.028106089593392,0.0,0.0,0.0
2,2021-07-06 12:11:15.875446,190772,10.319176074898488,-0.8638341135633499,0.15326180979755485,24.930288022940786,10.097967997749423,7.065655977438744,0.0,0.0,0.0
2,2021-07-06 12:11:15.883071,190779,10.317733337516751,-0.8638329936610587,0.1527483278510259,24.903500430075784,10.084147970220485,7.103036405534442,0.0,0.0,0.0
2,2021-07-06 12:11:15.890718,190787,10.316280552626996,-0.8638518597964041,0.15219419857116628,24.87656568724793,10.070335475072751,7.140225835247781,0.0,0.0,0.0
2,2021-07-06 12:11:15.900076,190796,10.314817526726669,-0.8638902715894313,0.15160473659035992,24.849480356853437,10.056499446756305,7.177203333921163,0.0,0.0,0.0
2,2021-07-06 12:11:15.908791,190805,10.313344045347685,-0.8639477520932312,0.15098535249803036,24.8222409432787,10.042608243497101,7.213948629476559,0.0,0.0,0.0
2,2021-07-06 12:11:15.916302,190813,10.311859874083488,-0.864023789928974,0.15034152049404548,24.794843912970226,10.028629905215645,7.250442155796582,0.0,0.0,0.0
2,2021-07-06 12:11:15.924329,190821,10.310364759926294,-0.8641178401829633,0.14967874470627957,24.767285717295763,10.01453241124046,7.286665090410497,0.0,0.0,0.0
2,2021-07-06 12:11:15.932488,190829,10.308858432823664,-0.8642293245515971,0.1490025248898737,24.739562819479357,10.000283938735711,7.322599385801762,0.0,0.0,0.0
2,2021-07-06 12:11:15.940029,190836,10.307340607335306,-0.8643576309502184,0.14831832226085845,24.7116717263065,9.985853122520075,7.3582277954723425,0.0,0.0,0.0
2,2021-07-06 12:11:15.947153,190843,10.305810984454183,-0.8645021127340422,0.14763152616984804,24.683609024219496,9.971209316077637,7.393533895842828,0.0,0.0,0.0
2,2021-07-06 12:11:15.954150,190850,10.304269254022921,-0.8646620878136397,0.14694742238478573,24.65537141837803,9.956322852430752,7.428502104852242,0.0,0.0,0.0
2,2021-07-06 12:11:15.962518,190859,10.302715098359547,-0.8648368380541578,0.14627116378785374,24.626955772751984,9.94116530280679,7.463117697944573,0.0,0.0,0.0
2,2021-07-06 12:11:15.969640,190866,10.301148197411875,-0.8650256093254806,0.1456077440076214,24.598359149374158,9.92570973055955,7.497366822314612,0.0,0.0,0.0
2,2021-07-06 12:11:15.976508,190873,10.299568235198398,-0.8652276125163626,0.1449619741001674,24.569578845256746,9.90993093694599,7.531236510493981,0.0,0.0,0.0
2,2021-07-06 12:11:15.983543,190880,10.297974906879244,-0.8654420257345933,0.1443384623704953,24.54061242613582,9.89380569427589,7.56471469421801,0.0,0.0,0.0
2,2021-07-06 12:11:15.990670,190887,10.296367925671275,-0.8656679977047959,0.14374159784299936,24.511457757057993,9.877312961452013,7.597790219262544,0.0,0.0,0.0
2,2021-07-06 12:11:15.998429,190895,10.29474702894011,-0.8659046521511713,0.1431755381014335,24.48211303019133,9.860434077467136,7.630452861861095,0.0,0.0,0.0
2,2021-07-06 12:11:16.006480,190903,10.293111983168624,-0.8661510927924737,0.1426442015334043,24.45257678967796,9.843152929903939,7.662693347091187,0.0,0.0,0.0
2,2021-07-06 12:11:16.014324,190911,10.291462587978558,-0.8664064083980527,0.14215126270655454,24.42284795246562,9.825456097088297,7.694503368922542,0.0,0.0,0.0
2,2021-07-06 12:11:16.021515,190918,10.289798679656743,-0.8666696772579797,0.14170014890038252,24.392925823672254,9.807332963376034,7.72587561112833,0.0,0.0,0.0
2,2021-07-06 12:11:16.028971,190925,10.28812013463656,-0.8669399705724804,0.1412940364149942,24.36281010539731,9.788775807123203,7.756803768605942,0.0,0.0,0.0
2,2021-07-06 12:11:16.036450,190933,10.28642687332004,-0.8672163545466728,0.14093584642509702,24.332500898876773,9.769779860904016,7.7872825691091165,0.0,0.0,0.0
2,2021-07-06 12:11:16.044087,190940,10.28471886448725,-0.8674978912757086,0.14062824074533267,24.301998701051946,9.750343344027819,7.817307795247816,0.0,0.0,0.0
2,2021-07-06 12:11:16.052711,190949,10.28299613018949,-0.8677836388503947,0.14037361775676402,24.271304397368304,9.730467468225054,7.846876306292641,0.0,0.0,0.0
2,2021-07-06 12:11:16.059913,190956,10.281258750695653,-0.8680726513388493,0.14017410846339995,24.24041925245888,9.710156417866607,7.8759860593956335,0.0,0.0,0.0
2,2021-07-06 12:11:16.069469,190966,10.279506869037174,-0.8683639792771004,0.14003157260496102,24.209344899446247,9.68941730629085,7.904636130087843,0.0,0.0,0.0
2,2021-07-06 12:11:16.076403,190973,10.277740694852412,-0.8686566711593724,0.13994759494306702,24.178083327819195,9.668260110409767,7.932826731751655,0.0,0.0,0.0
2,2021-07-06 12:11:16.083740,190980,10.275960507391135,-0.8689497760514978,0.13992348218480966,24.146636869670555,9.646697586133836,7.960559233342703,0.0,0.0,0.0
2,2021-07-06 12:11:16.091837,190988,10.274166657709024,-0.8692423467251884,0.13996026142782825,24.1150081840392,9.62474516618116,7.987836174639477,0.0,0.0,0.0
2,2021-07-06 12:11:16.100315,190997,10.272359570196043,-0.8695334422194246,0.14005868113364814,24.083200238835094,9.602420840309907,8.01466127887081,0.0,0.0,0.0
2,2021-07-06 12:11:16.107845,191004,10.270539743558693,-0.8698221291257402,0.14021921509028362,24.051216289656868,9.579745017514329,8.041039463333135,0.0,0.0,0.0
2,2021-07-06 12:11:16.116552,191013,10.268707751315636,-0.8701074817945599,0.140442068899388,24.019059855108218,9.5567403703879,8.066976849078983,0.0,0.0,0.0
2,2021-07-06 12:11:16.124029,191020,10.26686424191124,-0.8703885822339009,0.14072718795469197,23.986734688800816,9.533431662703205,8.092480770493452,0.0,0.0,0.0
2,2021-07-06 12:11:16.131843,191028,10.265009938679569,-0.8706645204761994,0.1410742659601255,23.95424474856027,9.509845561536782,8.117559784726376,0.0,0.0,0.0
2,2021-07-06 12:11:16.139356,191036,10.263145639913503,-0.8709343959131737,0.14148275345192518,23.921594163135612,9.486010434915208,8.142223680367858,0.0,0.0,0.0
2,2021-07-06 12:11:16.148270,191045,10.261272219040247,-0.8711973197768053,0.14195186625071746,23.888787196228524,9.461956135466119,8.166483484728198,0.0,0.0,0.0
2,2021-07-06 12:11:16.157113,191053,10.259390624508647,-0.8714524186501766,0.14248059419003292,23.85582820752195,9.437713770564502,8.190351468867519,0.0,0.0,0.0
2,2021-07-06 12:11:16.164590,191061,10.257501878878218,-0.8716988387077855,0.14306771065462617,23.822721610772785,9.4133154600418,8.213841148823413,0.0,0.0,0.0
2,2021-07-06 12:11:16.171153,191067,10.2556070769255,-0.8719357503569548,0.14371178330087298,23.7894718294345,9.388794083056869,8.236967280978304,0.0,0.0,0.0
2,2021-07-06 12:11:16.178441,191075,10.253707382922912,-0.8721623530525463,0.14441118611998555,23.75608325025812,9.364183015684736,8.259745849800016,0.0,0.0,0.0
2,2021-07-06 12:11:16.185361,191082,10.251804027152925,-0.8723778802863505,0.1451641131686299,23.72256017527166,9.339515860532526,8.282194047113704,0.0,0.0,0.0
2,2021-07-06 12:11:16.193066,191089,10.249898301334024,-0.8725816050551389,0.14596859480325805,23.688906773026673,9.314826169952969,8.304330242862399,0.0,0.0,0.0
2,2021-07-06 12:11:16.200292,191097,10.247991552436979,-0.8727728462163976,0.14682251742728075,23.655127030379173,9.290147164744171,8.326173947592228,0.0,0.0,0.0
2,2021-07-06 12:11:16.209206,191106,10.246085174622522,-0.8729509757587741,0.14772364685235173,23.621224705534644,9.265511449944482,8.34774576676746,0.0,0.0,0.0
2,2021-07-06 12:11:16.217186,191114,10.244180599564414,-0.873115426324456,0.1486696537390578,23.58720328241532,9.24095072925084,8.369067346511644,0.0,0.0,0.0
2,2021-07-06 12:11:16.226447,191123,10.242279285881333,-0.8732656979983523,0.14965813871541328,23.553065926558038,9.21649552045854,8.39016130980013,0.0,0.0,0.0
2,2021-07-06 12:11:16.234328,191131,10.240382708594067,-0.8734013637548498,0.15068665544294213,23.518815443296372,9.192174875381395,8.411051182065233,0.0,0.0,0.0
2,2021-07-06 12:11:16.241980,191138,10.238492349386757,-0.8735220735355075,0.15175273110249501,23.48445423904448,9.168016107865999,8.43176130564959,0.0,0.0,0.0
2,2021-07-06 12:11:16.249455,191146,10.236609687945617,-0.8736275572287903,0.15285388436978578,23.449984286137518,9.144044533164697,8.452316743082239,0.0,0.0,0.0
2,2021-07-06 12:11:16.258041,191154,10.23473619400096,-0.8737176269047339,0.15398764102635734,23.415407091676272,9.120283222398276,8.47274316947113,0.0,0.0,0.0
2,2021-07-06 12:11:16.265764,191162,10.232873319377026,-0.8737921786105816,0.1551515474455746,23.38072367117267,9.096752776560166,8.493066754847687,0.0,0.0,0.0
2,2021-07-06 12:11:16.274425,191171,10.231022489520074,-0.8738511938027937,0.15634318243349268,23.345934527714636,9.073471123798688,8.51331403844276,0.0,0.0,0.0
2,2021-07-06 12:11:16.284244,191181,10.229185094297348,-0.8738947402831595,0.15756016800261172,23.311039636754046,9.050453341862545,8.533511797781667,0.0,0.0,0.0
2,2021-07-06 12:11:16.291216,191188,10.227362478044089,-0.873922972620638,0.158800179314992,23.276038436180567,9.027711506108107,8.553686915321729,0.0,0.0,0.0
2,2021-07-06 12:11:16.300749,191197,10.225555928905356,-0.8739361323749585,0.16006095341937945,23.240929821621897,9.005254563008252,8.573866244632153,0.0,0.0,0.0
2,2021-07-06 12:11:16.308151,191204,10.223766667520296,-0.8739345485519088,0.1613402960880526,23.205712147654893,8.983088229632136,8.59407647744176,0.0,0.0,0.0
2,2021-07-06 12:11:16.316143,191212,10.22199583504223,-0.873918638439072,0.16263608623909084,23.17038323610298,8.961214920695856,8.614344012183414,0.0,0.0,0.0
2,2021-07-06 12:11:16.324076,191220,10.220244480567061,-0.8738889086758307,0.1639462776187712,23.134940392335924,8.939633705875663,8.634694824127262,0.0,0.0,0.0
2,2021-07-06 12:11:16.331910,191228,10.218513548351448,-0.8738459564473041,0.16526889723222454,23.09938042951766,8.918340300567078,8.655154337180889,0.0,0.0,0.0
2,2021-07-06 12:11:16.339001,191235,10.216803865437667,-0.8737904708196386,0.16660203995655684,23.063699699706063,8.897327092777742,8.675747297714526,0.0,0.0,0.0
2,2021-07-06 12:11:16.346675,191243,10.21511613023435,-0.8737232340035226,0.16794385971014975,23.027894130306745,8.876583207477356,8.696497650735033,0.0,0.0,0.0
2,2021-07-06 12:11:16.353605,191250,10.213450902442737,-0.8736451217715258,0.16929255927876705,22.99195926461254,8.856094608394953,8.717428418225635,0.0,0.0,0.0
2,2021-07-06 12:11:16.361071,191257,10.21180859464123,-0.8735571019784543,0.17064638179715508,22.95589030546105,8.835844236536234,8.738561579160613,0.0,0.0,0.0
2,2021-07-06 12:11:16.368725,191265,10.210189465782658,-0.8734602306293439,0.17200360585059288,22.91968216129547,8.81581218411779,8.759917951171948,0.0,0.0,0.0
2,2021-07-06 12:11:16.377984,191274,10.208593616814083,-0.8733556458302706,0.17336254415125757,22.88332949445893,8.795975901745853,8.781517074622196,0.0,0.0,0.0
2,2021-07-06 12:11:16.386257,191283,10.207020988584457,-0.873244560370013,0.17472154430232031,22.846826772097213,8.77631043573399,8.803377100205752,0.0,0.0,0.0
2,2021-07-06 12:11:16.394764,191291,10.205471362078159,-0.8731282533401,0.1760789896729866,22.810168319925495,8.756788691835546,8.825514681159072,0.0,0.0,0.0
2,2021-07-06 12:11:16.402807,191299,10.203944360857621,-0.8730080607409169,0.17743329862757648,22.77334837845819,8.737381721639071,8.847944871088403,0.0,0.0,0.0
2,2021-07-06 12:11:16.410339,191307,10.202439455507845,-0.8728853651130145,0.17878292108432456,22.73636116081774,8.71805902824089,8.870681028479154,0.0,0.0,0.0
2,2021-07-06 12:11:16.418258,191315,10.20095596982638,-0.8727615847607633,0.1801263323226845,22.699200911331246,8.698788887959926,8.893734728952198,0.0,0.0,0.0
2,2021-07-06 12:11:16.426002,191322,10.199493088503777,-0.8726381634338521,0.18146202505659878,22.661861964548432,8.679538684945861,8.91711568595546,0.0,0.0,0.0
